,time,gesture,ax,ay,az,qw,qx,qy,qz,e0,e1,e2,e3,e4,e5,e6,e7
0,9.619953989982603,0,0.22679266989602345,0.37423569591451744,0.41974709448180253,0.3579656657292764,0.2745851446490184,0.2872180500851496,0.3390581809496771,0.49019607843137253,0.5019607843137255,0.5019607843137255,0.47843137254901963,0.49411764705882355,0.49411764705882355,0.5019607843137255,0.5019607843137255
1,9.621263027191162,0,0.2276959500358578,0.37388828014773207,0.42002502311079504,0.3579703711856202,0.2746067560335969,0.2868223233138018,0.33937475782825116,0.5058823529411764,0.4980392156862745,0.4980392156862745,0.49411764705882355,0.49019607843137253,0.4980392156862745,0.5019607843137255,0.5019607843137255
2,9.622575998306273,0,0.22804336437963038,0.3736798301184557,0.4191217429709607,0.3579876661285027,0.2746057899805549,0.28658488660263537,0.3383458691952835,0.4745098039215686,0.49411764705882355,0.4980392156862745,0.47843137254901963,0.4745098039215686,0.49019607843137253,0.4980392156862745,0.49411764705882355
3,9.624055027961733,0,0.22714008566280883,0.3734713815121921,0.4212062375716731,0.358005518659047,0.27458525000715217,0.28634745151236335,0.34072022982337036,0.49411764705882355,0.4980392156862745,0.4980392156862745,0.49411764705882355,0.4823529411764706,0.5058823529411764,0.5019607843137255,0.5058823529411764
4,9.639409065246582,0,0.22755698429834875,0.37388828014773207,0.42099778611938393,0.35801950859831777,0.2745769445444221,0.2868223233138018,0.34048279149130956,0.5019607843137255,0.4980392156862745,0.4980392156862745,0.5098039215686274,0.5098039215686274,0.4980392156862745,0.49019607843137253,0.4980392156862745
5,9.669183015823362,0,0.22811285009441049,0.3735408643809467,0.42092830325062935,0.3580394861213756,0.2745671300290375,0.286426596542454,0.3404036464612188,0.4980392156862745,0.49411764705882355,0.5019607843137255,0.49411764705882355,0.5058823529411764,0.49411764705882355,0.49019607843137253,0.49019607843137253
6,9.671059012413023,0,0.22720956853156335,0.3731934500371741,0.42037243745456765,0.3580550029431389,0.2745654686123126,0.28603087139200056,0.3397704829787046,0.5098039215686274,0.5019607843137255,0.5019607843137255,0.4980392156862745,0.49411764705882355,0.4980392156862745,0.5098039215686274,0.5019607843137255
7,9.6993510723114,0,0.22873819306717555,0.3722206870285852,0.42002502311079504,0.3580737955924154,0.274535401021828,0.2849228377289422,0.33937475782825116,0.5137254901960784,0.5058823529411764,0.4980392156862745,0.49019607843137253,0.4980392156862745,0.49411764705882355,0.5019607843137255,0.49411764705882355
8,9.729264974594118,0,0.22714008566280883,0.3733324157746831,0.4208588232279004,0.3580769125722807,0.2745366166926023,0.28618916145218193,0.34032450467291686,0.49411764705882355,0.4980392156862745,0.49019607843137253,0.5058823529411764,0.49411764705882355,0.4980392156862745,0.5019607843137255,0.5019607843137255
9,9.73089599609375,0,0.22651473557497975,0.3733324157746831,0.4211367518568929,0.3580877887734749,0.2745369976027783,0.28618916145218193,0.3406410815514909,0.49411764705882355,0.49411764705882355,0.5019607843137255,0.5137254901960784,0.5019607843137255,0.5019607843137255,0.5137254901960784,0.5019607843137255
10,9.75931203365326,0,0.22693163563353247,0.3736103472497012,0.42099778611938393,0.35809034492388964,0.2745577742267584,0.2865057415725447,0.34048279149130956,0.5058823529411764,0.49411764705882355,0.5019607843137255,0.4823529411764706,0.5058823529411764,0.4980392156862745,0.4980392156862745,0.5019607843137255
11,9.789245009422302,0,0.2273485356920852,0.3736798301184557,0.42092830325062935,0.35808663793847517,0.27457611788829556,0.28658488660263537,0.3404036464612188,0.5058823529411764,0.4980392156862745,0.4980392156862745,0.5019607843137255,0.5098039215686274,0.5019607843137255,0.4980392156862745,0.5019607843137255
12,9.790870070457457,0,0.2279738786648503,0.374444144520781,0.4207198517983402,0.35809555285748684,0.27459552971921974,0.2874554851754217,0.340166208129158,0.49019607843137253,0.5058823529411764,0.49411764705882355,0.5019607843137255,0.5058823529411764,0.4980392156862745,0.4980392156862745,0.5019607843137255
13,13.86561906337738,0,0.22811285009441049,0.37291551571613035,0.42092830325062935,0.3580009412533582,0.27383539509745913,0.2857142880298491,0.3404036464612188,0.5098039215686274,0.5019607843137255,0.49411764705882355,0.49019607843137253,0.4980392156862745,0.5019607843137255,0.5019607843137255,0.5019607843137255
14,13.866603970527649,0,0.22852975015296317,0.3734018986434376,0.42183158054443814,0.3580041084809488,0.2738031409204751,0.28626830648227264,0.34143253185239775,0.48627450980392156,0.4980392156862745,0.5058823529411764,0.47843137254901963,0.47058823529411764,0.5019607843137255,0.49411764705882355,0.4980392156862745
15,13.925454020500185,0,0.22832129727766123,0.37131740688875087,0.42231796631777097,0.35802591923553434,0.27371487511778836,0.28389394909597454,0.3419865535466101,0.5019607843137255,0.5098039215686274,0.4980392156862745,0.5098039215686274,0.4980392156862745,0.5019607843137255,0.4980392156862745,0.4980392156862745
16,13.926926970481873,0,0.22866871304444664,0.3721512041598307,0.4215536519154457,0.3580254167582809,0.27370478991304464,0.2848436926988515,0.3411159549738238,0.5019607843137255,0.5058823529411764,0.4980392156862745,0.49019607843137253,0.49019607843137253,0.5019607843137255,0.5019607843137255,0.5058823529411764
17,13.955765962600708,0,0.228390778723403,0.3721512041598307,0.4217620990986964,0.35802369212667584,0.2737041318299322,0.2848436926988515,0.34135338844320146,0.48627450980392156,0.47843137254901963,0.4980392156862745,0.4823529411764706,0.49019607843137253,0.49019607843137253,0.4980392156862745,0.49411764705882355
18,13.98538303375244,0,0.22790439864212136,0.3724291356348488,0.42197055197399835,0.35802369212667584,0.2737041318299322,0.2851602728192143,0.3415908283961566,0.5058823529411764,0.5019607843137255,0.5019607843137255,0.5019607843137255,0.49411764705882355,0.5058823529411764,0.49411764705882355,0.5058823529411764
19,13.9874529838562,0,0.22887716449673584,0.3725681013723578,0.42190106625921825,0.3580263568770131,0.2736952590541741,0.2853185628793956,0.34151168012427724,0.5019607843137255,0.4980392156862745,0.49411764705882355,0.5058823529411764,0.5058823529411764,0.5058823529411764,0.5058823529411764,0.4980392156862745
20,14.016035079956055,0,0.22825181440890674,0.3722206870285852,0.42183158054443814,0.3580263568770131,0.2736952590541741,0.2849228377289422,0.34143253185239775,0.5019607843137255,0.5098039215686274,0.5019607843137255,0.49411764705882355,0.48627450980392156,0.49019607843137253,0.49019607843137253,0.49411764705882355
21,14.045886993408205,0,0.22825181440890674,0.3722206870285852,0.4225958949467634,0.3580290475616602,0.2736863878993104,0.2849228377289422,0.34230313042518407,0.49411764705882355,0.49411764705882355,0.4980392156862745,0.5058823529411764,0.5019607843137255,0.4980392156862745,0.4980392156862745,0.5019607843137255
22,14.047831058502195,0,0.22818233154015224,0.3724986185036033,0.42190106625921825,0.3580290475616602,0.2736863878993104,0.28523941784930495,0.34151168012427724,0.49411764705882355,0.4980392156862745,0.49411764705882355,0.5019607843137255,0.49411764705882355,0.5058823529411764,0.4980392156862745,0.5019607843137255
23,14.076356053352356,0,0.22811285009441049,0.3722206870285852,0.4217620990986964,0.3580258706087034,0.27368517709121915,0.2849228377289422,0.34135338844320146,0.5019607843137255,0.49019607843137253,0.5019607843137255,0.4980392156862745,0.4980392156862745,0.5019607843137255,0.5019607843137255,0.49411764705882355
24,14.105236053466795,0,0.22783491577336684,0.3725681013723578,0.4216231333611874,0.3580258706087034,0.27368517709121915,0.2853185628793956,0.3411950983830201,0.5098039215686274,0.5019607843137255,0.4980392156862745,0.5137254901960784,0.5098039215686274,0.49411764705882355,0.5058823529411764,0.4980392156862745
25,14.106821060180664,0,0.22832129727766123,0.37180378697003247,0.4216926162299419,0.35802682207369607,0.2736756462323485,0.28444796430660935,0.34127424341311074,0.5019607843137255,0.5019607843137255,0.49411764705882355,0.4980392156862745,0.49019607843137253,0.49411764705882355,0.4980392156862745,0.4980392156862745
26,14.135735034942627,0,0.22804336437963038,0.3721512041598307,0.4217620990986964,0.35802682207369607,0.2736756462323485,0.2848436926988515,0.34135338844320146,0.5019607843137255,0.4980392156862745,0.4980392156862745,0.5019607843137255,0.4980392156862745,0.5058823529411764,0.4980392156862745,0.5019607843137255
27,14.165220022201538,0,0.2284602644381831,0.37187327268481263,0.42127571759440197,0.35802682207369607,0.2736756462323485,0.2845271125784888,0.34079937161167223,0.4980392156862745,0.5098039215686274,0.4980392156862745,0.49019607843137253,0.5254901960784314,0.5058823529411764,0.5058823529411764,0.4980392156862745
28,14.167338013648989,0,0.22818233154015224,0.37131740688875087,0.42148416620066553,0.358029485203139,0.273666766973013,0.28389394909597454,0.3410368067019443,0.5098039215686274,0.49411764705882355,0.4980392156862745,0.49019607843137253,0.5176470588235295,0.49019607843137253,0.4980392156862745,0.5019607843137255
29,14.196048974990845,0,0.228390778723403,0.3720817212910762,0.4211367518568929,0.35802457389321074,0.2736648915982318,0.2847645476687608,0.3406410815514909,0.49411764705882355,0.4980392156862745,0.4980392156862745,0.4980392156862745,0.49411764705882355,0.49411764705882355,0.49411764705882355,0.5019607843137255
30,14.245351076126099,0,0.2273485356920852,0.37284603427038865,0.4215536519154457,0.35802457389321074,0.2736648915982318,0.28563514462065276,0.3411159549738238,0.5058823529411764,0.5019607843137255,0.4980392156862745,0.49019607843137253,0.49019607843137253,0.5019607843137255,0.4980392156862745,0.5058823529411764
31,14.246523976325989,0,0.22825181440890674,0.3724986185036033,0.4228738278447943,0.3580272564733861,0.27365602368515685,0.28523941784930495,0.34261971216644116,0.49411764705882355,0.5019607843137255,0.4980392156862745,0.4980392156862745,0.5058823529411764,0.4980392156862745,0.5019607843137255,0.5019607843137255
32,14.255769968032837,0,0.22811285009441049,0.37131740688875087,0.4230127950053162,0.3580272564733861,0.27365602368515685,0.28389394909597454,0.34277800384751694,0.5019607843137255,0.49411764705882355,0.4980392156862745,0.5058823529411764,0.48627450980392156,0.5019607843137255,0.5058823529411764,0.4980392156862745
33,14.285776972770693,0,0.22783491577336684,0.37180378697003247,0.42252640923198337,0.35802992284461777,0.27364715090939873,0.28444796430660935,0.3422239821533047,0.49411764705882355,0.5215686274509804,0.5058823529411764,0.48627450980392156,0.49019607843137253,0.5019607843137255,0.49411764705882355,0.4980392156862745
34,14.28705096244812,0,0.22790439864212136,0.37173430552429076,0.42294330929053603,0.3580276908730761,0.27363640437975384,0.284368820897413,0.3426988555756375,0.5058823529411764,0.49411764705882355,0.5019607843137255,0.49411764705882355,0.5058823529411764,0.49411764705882355,0.49411764705882355,0.5019607843137255
35,14.315754055976868,0,0.22880767878195568,0.3722901698973397,0.42127571759440197,0.3580276908730761,0.27363640437975384,0.2850019827590329,0.34079937161167223,0.4980392156862745,0.5019607843137255,0.4980392156862745,0.49411764705882355,0.49411764705882355,0.5019607843137255,0.49019607843137253,0.49019607843137253
36,14.345671057701109,0,0.22783491577336684,0.3725681013723578,0.4216926162299419,0.3580276908730761,0.27363640437975384,0.2853185628793956,0.34127424341311074,0.5019607843137255,0.49019607843137253,0.49411764705882355,0.48627450980392156,0.49411764705882355,0.5058823529411764,0.5019607843137255,0.5019607843137255
37,14.347225069999695,0,0.22825181440890674,0.3722901698973397,0.42092830325062935,0.3580276908730761,0.27363640437975384,0.2850019827590329,0.3404036464612188,0.4980392156862745,0.49019607843137253,0.4980392156862745,0.49411764705882355,0.4980392156862745,0.5058823529411764,0.4980392156862745,0.4980392156862745
38,14.375668048858644,0,0.2284602644381831,0.37166482265553624,0.42148416620066553,0.3580303604860965,0.27362752674131263,0.28428967586732234,0.3410368067019443,0.4980392156862745,0.5098039215686274,0.4980392156862745,0.5137254901960784,0.4823529411764706,0.4980392156862745,0.4980392156862745,0.49411764705882355
39,14.405696988105776,0,0.22811285009441049,0.3729850014309105,0.42134520046315654,0.3580303604860965,0.27362752674131263,0.2857934363017285,0.340878516641763,0.5058823529411764,0.49019607843137253,0.49411764705882355,0.4980392156862745,0.49411764705882355,0.49019607843137253,0.5019607843137255,0.4980392156862745
40,14.407168984413149,0,0.22811285009441049,0.3725681013723578,0.4216926162299419,0.3580303604860965,0.27362752674131263,0.2853185628793956,0.34127424341311074,0.5019607843137255,0.49019607843137253,0.5019607843137255,0.4823529411764706,0.5058823529411764,0.49411764705882355,0.5058823529411764,0.4980392156862745
41,14.435770988464355,0,0.22762646432107764,0.3724986185036033,0.42183158054443814,0.3580286180246533,0.2736268654164114,0.28523941784930495,0.34143253185239775,0.49411764705882355,0.5019607843137255,0.4980392156862745,0.49411764705882355,0.5058823529411764,0.5019607843137255,0.4980392156862745,0.4980392156862745
42,14.465667009353638,0,0.22825181440890674,0.3720122384223216,0.4216231333611874,0.35802544917616824,0.2736256578501089,0.2846854026386701,0.3411950983830201,0.5137254901960784,0.5019607843137255,0.5019607843137255,0.5058823529411764,0.5058823529411764,0.5019607843137255,0.5058823529411764,0.4980392156862745
43,14.468538045883179,0,0.22887716449673584,0.3721512041598307,0.4217620990986964,0.35802813986081544,0.2736167834534564,0.2848436926988515,0.34135338844320146,0.5058823529411764,0.4980392156862745,0.4980392156862745,0.47843137254901963,0.5058823529411764,0.49411764705882355,0.49019607843137253,0.5058823529411764
44,14.49590003490448,0,0.22873819306717555,0.3722206870285852,0.4226653806615436,0.35802813986081544,0.2736167834534564,0.2849228377289422,0.3423822786970635,0.48627450980392156,0.5254901960784314,0.5019607843137255,0.49019607843137253,0.5098039215686274,0.5058823529411764,0.49411764705882355,0.5019607843137255
45,14.525405049324036,0,0.22887716449673584,0.3724986185036033,0.4228043449760398,0.35803079812757527,0.273607909056804,0.28523941784930495,0.3425405671363505,0.5019607843137255,0.49019607843137253,0.4980392156862745,0.49019607843137253,0.5058823529411764,0.5019607843137255,0.5058823529411764,0.49411764705882355
46,14.527469992637634,0,0.22859923017569211,0.37166482265553624,0.4228738278447943,0.3580336833195462,0.27360523782288926,0.28428967586732234,0.34261971216644116,0.5058823529411764,0.4549019607843137,0.5058823529411764,0.49411764705882355,0.5058823529411764,0.4980392156862745,0.4980392156862745,0.5019607843137255
47,14.555745005607605,0,0.22832129727766123,0.37180378697003247,0.4226653806615436,0.3580363577952497,0.27359636018444805,0.28444796430660935,0.3423822786970635,0.5019607843137255,0.5137254901960784,0.49411764705882355,0.5137254901960784,0.4980392156862745,0.49019607843137253,0.4980392156862745,0.5019607843137255
48,14.585437059402466,0,0.22825181440890674,0.3709699925449783,0.42183158054443814,0.3580331808422929,0.27359515261814554,0.2834982239455211,0.34143253185239775,0.49411764705882355,0.5019607843137255,0.4980392156862745,0.4980392156862745,0.4980392156862745,0.5098039215686274,0.5019607843137255,0.4980392156862745
49,14.587380051612856,0,0.22776543575063793,0.37152585834104,0.42231796631777097,0.3580358650433626,0.2735862830841762,0.2841313874280353,0.3419865535466101,0.5019607843137255,0.4980392156862745,0.4980392156862745,0.5058823529411764,0.5058823529411764,0.5019607843137255,0.4980392156862745,0.5019607843137255
50,14.6159930229187,0,0.228390778723403,0.3722901698973397,0.42231796631777097,0.3580358650433626,0.2735862830841762,0.2850019827590329,0.3419865535466101,0.5019607843137255,0.4980392156862745,0.4980392156862745,0.4980392156862745,0.5019607843137255,0.49411764705882355,0.5019607843137255,0.4980392156862745
51,14.645557045936586,0,0.22832129727766123,0.3721512041598307,0.4217620990986964,0.3580385297936999,0.27357740382484064,0.2848436926988515,0.34135338844320146,0.5019607843137255,0.4980392156862745,0.5019607843137255,0.4980392156862745,0.5058823529411764,0.5098039215686274,0.4980392156862745,0.4980392156862745
52,14.647431015968325,0,0.22776543575063793,0.3720817212910762,0.42127571759440197,0.3580367954367285,0.2735767424999394,0.2847645476687608,0.34079937161167223,0.5058823529411764,0.5098039215686274,0.4980392156862745,0.49411764705882355,0.5098039215686274,0.5019607843137255,0.5019607843137255,0.49411764705882355
53,14.675904035568236,0,0.22832129727766123,0.37180378697003247,0.4221789948882107,0.3580367954367285,0.2735767424999394,0.28444796430660935,0.3418282570028512,0.4980392156862745,0.49411764705882355,0.5019607843137255,0.5019607843137255,0.5058823529411764,0.49019607843137253,0.4980392156862745,0.4980392156862745
54,14.706330060958862,0,0.22825181440890674,0.37173430552429076,0.42238744634049985,0.35803629295947514,0.27356665729519575,0.284368820897413,0.342065695334912,0.5019607843137255,0.5019607843137255,0.49411764705882355,0.48627450980392156,0.5019607843137255,0.5019607843137255,0.5019607843137255,0.4980392156862745
55,14.709128975868225,0,0.22825181440890674,0.3715953397867818,0.4228043449760398,0.35803629295947514,0.27356665729519575,0.28421053083723163,0.3425405671363505,0.5019607843137255,0.5058823529411764,0.5058823529411764,0.48627450980392156,0.4980392156862745,0.5058823529411764,0.4980392156862745,0.4980392156862745
56,14.73600697517395,0,0.22804336437963038,0.3719427555535671,0.4228738278447943,0.358038956088918,0.2735577780358602,0.28460625760857944,0.34261971216644116,0.49411764705882355,0.49019607843137253,0.49411764705882355,0.49411764705882355,0.48627450980392156,0.49411764705882355,0.5019607843137255,0.5019607843137255
57,14.766057968139648,0,0.22790439864212136,0.3720122384223216,0.42308228072009624,0.358038956088918,0.2735577780358602,0.2846854026386701,0.3428571521193963,0.4980392156862745,0.5058823529411764,0.49411764705882355,0.49411764705882355,0.49411764705882355,0.49411764705882355,0.5058823529411764,0.49411764705882355
58,14.768383026123047,0,0.22832129727766123,0.37180378697003247,0.4215536519154457,0.35803988324049524,0.2735482374516234,0.28444796430660935,0.3411159549738238,0.5019607843137255,0.4980392156862745,0.5058823529411764,0.49411764705882355,0.5019607843137255,0.5058823529411764,0.4980392156862745,0.5058823529411764
59,14.795768022537231,0,0.228390778723403,0.3715953397867818,0.4216926162299419,0.3580367143920102,0.27354702826442656,0.28421053083723163,0.34127424341311074,0.5019607843137255,0.4980392156862745,0.5019607843137255,0.5019607843137255,0.5058823529411764,0.4980392156862745,0.5019607843137255,0.5058823529411764
60,14.825613021850586,0,0.22825181440890674,0.3720122384223216,0.42134520046315654,0.3580367143920102,0.27354702826442656,0.2846854026386701,0.340878516641763,0.5098039215686274,0.49411764705882355,0.49019607843137253,0.4980392156862745,0.49019607843137253,0.49411764705882355,0.5019607843137255,0.5019607843137255
61,14.828060984611511,0,0.22832129727766123,0.3721512041598307,0.4221789948882107,0.3580393807632418,0.2735381506259853,0.2848436926988515,0.3418282570028512,0.5058823529411764,0.5098039215686274,0.49019607843137253,0.49411764705882355,0.5058823529411764,0.4980392156862745,0.49019607843137253,0.49411764705882355
62,14.85571300983429,0,0.22859923017569211,0.37152585834104,0.42238744634049985,0.3580393807632418,0.2735381506259853,0.2841313874280353,0.342065695334912,0.49019607843137253,0.5058823529411764,0.4980392156862745,0.4980392156862745,0.5137254901960784,0.5019607843137255,0.4980392156862745,0.5019607843137255
63,14.885773062705994,0,0.2284602644381831,0.3720122384223216,0.4227348621072853,0.35804204713447346,0.2735292713666498,0.2846854026386701,0.34246142210625985,0.4980392156862745,0.49019607843137253,0.5019607843137255,0.49019607843137253,0.49019607843137253,0.5019607843137255,0.5019607843137255,0.5019607843137255
64,14.887804985046387,0,0.228390778723403,0.37131740688875087,0.4221095148654818,0.35803887018151664,0.2735280638003473,0.28389394909597454,0.3417491152145493,0.5098039215686274,0.48627450980392156,0.4980392156862745,0.4980392156862745,0.4980392156862745,0.4980392156862745,0.5019607843137255,0.4980392156862745
65,14.915560007095337,0,0.22811285009441049,0.3722206870285852,0.42190106625921825,0.35803887018151664,0.2735280638003473,0.2849228377289422,0.34151168012427724,0.49019607843137253,0.4980392156862745,0.4980392156862745,0.4980392156862745,0.5137254901960784,0.49019607843137253,0.5019607843137255,0.5019607843137255
66,14.946017980575562,0,0.2276959500358578,0.37173430552429076,0.4211367518568929,0.3580397940913051,0.2735185232161105,0.284368820897413,0.3406410815514909,0.4980392156862745,0.4980392156862745,0.49411764705882355,0.5098039215686274,0.5019607843137255,0.49019607843137253,0.4980392156862745,0.49411764705882355
67,14.947955012321472,0,0.2279738786648503,0.3724291356348488,0.4215536519154457,0.3580397940913051,0.2735185232161105,0.2851602728192143,0.3411159549738238,0.5019607843137255,0.4980392156862745,0.5098039215686274,0.5019607843137255,0.5019607843137255,0.4980392156862745,0.4980392156862745,0.4980392156862745
68,14.975980997085571,0,0.22804336437963038,0.37235965276609423,0.42231796631777097,0.3580397940913051,0.2735185232161105,0.2850811277891236,0.3419865535466101,0.5058823529411764,0.49411764705882355,0.5019607843137255,0.49411764705882355,0.5058823529411764,0.5137254901960784,0.49411764705882355,0.5019607843137255
69,15.006149053573608,0,0.2276959500358578,0.3721512041598307,0.42127571759440197,0.3580397940913051,0.2735185232161105,0.2848436926988515,0.34079937161167223,0.49019607843137253,0.4980392156862745,0.4980392156862745,0.48627450980392156,0.5058823529411764,0.4980392156862745,0.4980392156862745,0.5019607843137255
70,15.008790969848633,0,0.2273485356920852,0.37152585834104,0.4221095148654818,0.3580380597343338,0.27351786189120925,0.2841313874280353,0.3417491152145493,0.5019607843137255,0.4980392156862745,0.49411764705882355,0.5058823529411764,0.5058823529411764,0.5058823529411764,0.5019607843137255,0.4980392156862745
71,15.036792039871216,0,0.22783491577336684,0.3722206870285852,0.42183158054443814,0.35804072448467106,0.27350898263187373,0.2849228377289422,0.34143253185239775,0.5019607843137255,0.5058823529411764,0.49411764705882355,0.4980392156862745,0.5019607843137255,0.4980392156862745,0.4980392156862745,0.49411764705882355
72,15.066202044487,0,0.22880767878195568,0.3724986185036033,0.4215536519154457,0.35804072448467106,0.27350898263187373,0.28523941784930495,0.3411159549738238,0.5058823529411764,0.4980392156862745,0.4980392156862745,0.48627450980392156,0.4980392156862745,0.5019607843137255,0.4980392156862745,0.49411764705882355
73,15.069241046905518,0,0.2290856074109482,0.3719427555535671,0.4221095148654818,0.3580375572570804,0.2735077750655712,0.28460625760857944,0.3417491152145493,0.4980392156862745,0.4980392156862745,0.4980392156862745,0.48627450980392156,0.49411764705882355,0.4980392156862745,0.5019607843137255,0.49411764705882355
74,15.096590995788574,0,0.22852975015296317,0.3714563726262599,0.42224848060299086,0.35804022200741775,0.27349889742713,0.2840522391561559,0.3419074052747306,0.5019607843137255,0.5019607843137255,0.4980392156862745,0.49019607843137253,0.4980392156862745,0.5019607843137255,0.49411764705882355,0.5058823529411764
75,15.126175045967102,0,0.2279738786648503,0.3725681013723578,0.4221095148654818,0.3580286180246533,0.2735081430085923,0.2853185628793956,0.3417491152145493,0.4980392156862745,0.49411764705882355,0.5019607843137255,0.5019607843137255,0.49411764705882355,0.48627450980392156,0.5058823529411764,0.49411764705882355
76,15.1283700466156,0,0.22866871304444664,0.3731934500371741,0.42245692920925443,0.3580286180246533,0.2735081430085923,0.28603087139200056,0.3421448403650027,0.4980392156862745,0.49411764705882355,0.5019607843137255,0.5019607843137255,0.4980392156862745,0.4980392156862745,0.4980392156862745,0.5019607843137255
77,15.156545996665955,0,0.228390778723403,0.37173430552429076,0.4221789948882107,0.3580286180246533,0.2735081430085923,0.284368820897413,0.3418282570028512,0.5098039215686274,0.5019607843137255,0.5058823529411764,0.4980392156862745,0.5098039215686274,0.4980392156862745,0.49411764705882355,0.5058823529411764
78,15.185654997825624,0,0.22811285009441049,0.3715953397867818,0.4221789948882107,0.3580263568770131,0.27349738999536993,0.28421053083723163,0.3418282570028512,0.5019607843137255,0.5019607843137255,0.49019607843137253,0.5098039215686274,0.48627450980392156,0.5098039215686274,0.5019607843137255,0.49411764705882355
79,15.188369035720825,0,0.22776543575063793,0.3721512041598307,0.4225958949467634,0.3580263568770131,0.27349738999536993,0.2848436926988515,0.34230313042518407,0.49411764705882355,0.5019607843137255,0.5058823529411764,0.4980392156862745,0.5137254901960784,0.5019607843137255,0.4980392156862745,0.4980392156862745
80,15.216433048248293,0,0.22714008566280883,0.37187327268481263,0.4239855565908922,0.3580290248691391,0.2734885107360343,0.2845271125784888,0.3438860358896809,0.5019607843137255,0.5058823529411764,0.49411764705882355,0.5058823529411764,0.5176470588235295,0.49411764705882355,0.5019607843137255,0.5019607843137255
81,15.24577796459198,0,0.22894664451946473,0.37055309390943836,0.42349917508659773,0.3580316896194764,0.2734796314766988,0.2830233521440826,0.34333201905815175,0.49411764705882355,0.4980392156862745,0.5019607843137255,0.49019607843137253,0.5019607843137255,0.5058823529411764,0.49411764705882355,0.5019607843137255
82,15.248412013053894,0,0.22811285009441049,0.3711089582824873,0.4234296950638689,0.3580340771968771,0.27346687990072344,0.28365651400570246,0.3432528772698498,0.5058823529411764,0.49019607843137253,0.4980392156862745,0.5098039215686274,0.49019607843137253,0.4980392156862745,0.5019607843137255,0.4980392156862745
83,15.276363015174866,0,0.22859923017569211,0.3722206870285852,0.4210672661421128,0.35802288005859856,0.2734960673455674,0.2849228377289422,0.34056193327961143,0.4980392156862745,0.49411764705882355,0.4980392156862745,0.5019607843137255,0.5098039215686274,0.4980392156862745,0.4980392156862745,0.4980392156862745
84,15.306189060211182,0,0.22832129727766123,0.3721512041598307,0.42134520046315654,0.358009750814236,0.2735183838191951,0.2848436926988515,0.340878516641763,0.4980392156862745,0.5058823529411764,0.49411764705882355,0.49411764705882355,0.5019607843137255,0.4980392156862745,0.49411764705882355,0.5058823529411764
85,15.308390974998474,0,0.22755698429834875,0.37235965276609423,0.4210672661421128,0.35799824408513353,0.27354744969696165,0.2850811277891236,0.34056193327961143,0.5019607843137255,0.49411764705882355,0.5058823529411764,0.48627450980392156,0.4980392156862745,0.49411764705882355,0.5058823529411764,0.5019607843137255
86,15.336331963539125,0,0.22714008566280883,0.3722206870285852,0.42141468048588543,0.3579949601531486,0.2735560923057198,0.2849228377289422,0.3409576584300649,0.5019607843137255,0.4980392156862745,0.49411764705882355,0.5058823529411764,0.5019607843137255,0.4980392156862745,0.5019607843137255,0.5019607843137255
87,15.365746021270752,0,0.2279738786648503,0.37152585834104,0.42190106625921825,0.35799762490348586,0.27354721304638424,0.2841313874280353,0.34151168012427724,0.5058823529411764,0.49411764705882355,0.5019607843137255,0.4980392156862745,0.49411764705882355,0.4980392156862745,0.4980392156862745,0.49411764705882355
88,15.368268966674805,0,0.2274875014295942,0.3720122384223216,0.42183158054443814,0.35799588406293703,0.273546551721483,0.2846854026386701,0.34143253185239775,0.5019607843137255,0.5058823529411764,0.49411764705882355,0.49411764705882355,0.49411764705882355,0.5019607843137255,0.5019607843137255,0.5019607843137255
89,15.397109031677244,0,0.22762646432107764,0.3724291356348488,0.42099778611938393,0.3579898057090655,0.2735480105264122,0.2851602728192143,0.34048279149130956,0.4980392156862745,0.5019607843137255,0.4980392156862745,0.49411764705882355,0.5098039215686274,0.5058823529411764,0.5058823529411764,0.49411764705882355
90,15.425734996795654,0,0.2276959500358578,0.3720817212910762,0.42183158054443814,0.3579898057090655,0.2735480105264122,0.2847645476687608,0.34143253185239775,0.4823529411764706,0.4980392156862745,0.4980392156862745,0.4980392156862745,0.48627450980392156,0.5058823529411764,0.4980392156862745,0.5058823529411764
91,15.428331017494203,0,0.2284602644381831,0.3720122384223216,0.4216926162299419,0.357992697384614,0.2735453392924974,0.2846854026386701,0.34127424341311074,0.5176470588235295,0.5058823529411764,0.5019607843137255,0.5098039215686274,0.5098039215686274,0.49019607843137253,0.49019607843137253,0.5019607843137255
92,15.45647406578064,0,0.22866871304444664,0.3719427555535671,0.42134520046315654,0.3579953815856837,0.2735364697585281,0.28460625760857944,0.340878516641763,0.4980392156862745,0.5019607843137255,0.49411764705882355,0.49019607843137253,0.49019607843137253,0.5019607843137255,0.4980392156862745,0.5019607843137255
93,15.485767006874086,0,0.22866871304444664,0.3721512041598307,0.4221095148654818,0.3579953815856837,0.2735364697585281,0.2848436926988515,0.3417491152145493,0.49411764705882355,0.5019607843137255,0.49411764705882355,0.48627450980392156,0.47843137254901963,0.49411764705882355,0.4980392156862745,0.5019607843137255
94,15.488409996032715,0,0.22894664451946473,0.37263758708713796,0.42294330929053603,0.3579953815856837,0.2735364697585281,0.28539771115127505,0.3426988555756375,0.49411764705882355,0.48627450980392156,0.5019607843137255,0.49411764705882355,0.48627450980392156,0.5019607843137255,0.4980392156862745,0.5019607843137255
95,15.516451001167296,0,0.22762646432107764,0.3713868897575054,0.42322124361157976,0.3579980495778097,0.2735275904991925,0.2839730941260652,0.343015438937789,0.49019607843137253,0.49411764705882355,0.49411764705882355,0.49019607843137253,0.5019607843137255,0.4980392156862745,0.4980392156862745,0.4980392156862745
96,15.546097040176392,0,0.2276959500358578,0.3711089582824873,0.4216926162299419,0.3579975292707183,0.27351749881087134,0.28365651400570246,0.34127424341311074,0.5058823529411764,0.4980392156862745,0.49411764705882355,0.5019607843137255,0.49411764705882355,0.49019607843137253,0.4980392156862745,0.5019607843137255
97,15.548320055007935,0,0.2274875014295942,0.37090050967622373,0.4221789948882107,0.3579975292707183,0.27351749881087134,0.2834190789154304,0.3418282570028512,0.4980392156862745,0.5019607843137255,0.5019607843137255,0.5019607843137255,0.5098039215686274,0.49019607843137253,0.4980392156862745,0.4980392156862745
98,15.576349020004272,0,0.22755698429834875,0.37152585834104,0.42148416620066553,0.35799578680927513,0.27351683748597017,0.2841313874280353,0.3410368067019443,0.5019607843137255,0.5019607843137255,0.49411764705882355,0.4980392156862745,0.5137254901960784,0.5098039215686274,0.5019607843137255,0.5019607843137255
99,15.605906009674072,0,0.2274180214068653,0.37180378697003247,0.4207198517983402,0.3579868556813199,0.27351720056630807,0.28444796430660935,0.340166208129158,0.4980392156862745,0.5058823529411764,0.5058823529411764,0.5019607843137255,0.5058823529411764,0.49019607843137253,0.5019607843137255,0.5019607843137255
100,15.608224987983705,0,0.2279738786648503,0.37166482265553624,0.42141468048588543,0.35797546079392867,0.273496845374863,0.28428967586732234,0.3409576584300649,0.5058823529411764,0.48627450980392156,0.4980392156862745,0.5098039215686274,0.5137254901960784,0.5019607843137255,0.4980392156862745,0.4980392156862745
101,15.63665497303009,0,0.2268621499187524,0.37152585834104,0.42078933751312037,0.35796596235294537,0.2734475280428908,0.2841313874280353,0.3402453564010375,0.5019607843137255,0.4980392156862745,0.5019607843137255,0.49411764705882355,0.5058823529411764,0.4980392156862745,0.5058823529411764,0.49019607843137253
102,15.666419982910154,0,0.22644525555225084,0.37173430552429076,0.4215536519154457,0.35794289702612075,0.27336713654503286,0.284368820897413,0.3411159549738238,0.5058823529411764,0.4980392156862745,0.4980392156862745,0.5019607843137255,0.5058823529411764,0.5058823529411764,0.4980392156862745,0.4980392156862745
103,15.668995022773744,0,0.22832129727766123,0.37263758708713796,0.4178015656185992,0.3578971278319152,0.27332896934540263,0.28539771115127505,0.33684211038177164,0.5019607843137255,0.5019607843137255,0.5019607843137255,0.5254901960784314,0.48627450980392156,0.4980392156862745,0.4980392156862745,0.5019607843137255
104,15.696552991867065,0,0.2268621499187524,0.3772929492547803,0.4182879471228937,0.35780601249693345,0.2733578569247889,0.29070043951361174,0.33739612721330087,0.5098039215686274,0.4980392156862745,0.5019607843137255,0.48627450980392156,0.49411764705882355,0.5098039215686274,0.5019607843137255,0.4980392156862745
105,15.725749969482422,0,0.22901612738821928,0.3768065677504858,0.4211367518568929,0.3578299433813494,0.27312198599757986,0.29014642268208257,0.3406410815514909,0.4823529411764706,0.49411764705882355,0.49019607843137253,0.4666666666666667,0.49019607843137253,0.49019607843137253,0.4980392156862745,0.4980392156862745
106,15.728285074234009,0,0.22978044179054455,0.37048361104068384,0.426903844193646,0.3579467385457676,0.2726562787328853,0.28294420711399193,0.3472101352579617,0.4980392156862745,0.4980392156862745,0.5019607843137255,0.48627450980392156,0.5098039215686274,0.5137254901960784,0.4980392156862745,0.5019607843137255
107,15.756585001945494,0,0.22984992181327346,0.36575876315826134,0.42815453867725295,0.35804713674278194,0.27222150947894974,0.27756233047977585,0.3486347490413828,0.49411764705882355,0.5058823529411764,0.4980392156862745,0.5176470588235295,0.4980392156862745,0.49019607843137253,0.5019607843137255,0.4980392156862745
108,15.785768985748293,0,0.230753207645159,0.36652307756058666,0.42718177709167693,0.3580977896917116,0.27192514515311655,0.2784329290525621,0.34752671699921883,0.5058823529411764,0.4980392156862745,0.5019607843137255,0.5019607843137255,0.4980392156862745,0.49411764705882355,0.4980392156862745,0.4980392156862745
109,15.788426041603088,0,0.2306142362155988,0.36721790767114465,0.4259310811850571,0.3581238115298593,0.2717160368127803,0.27922438097436336,0.3461021015949033,0.4980392156862745,0.4980392156862745,0.4980392156862745,0.48627450980392156,0.5058823529411764,0.49411764705882355,0.4980392156862745,0.5058823529411764
110,15.81636905670166,0,0.23040578903234804,0.3687465350527825,0.42530573821229206,0.3581263336414924,0.271558669041493,0.2809655764990416,0.34538979956587584,0.5058823529411764,0.4980392156862745,0.5019607843137255,0.49411764705882355,0.49411764705882355,0.49411764705882355,0.5019607843137255,0.49411764705882355
111,15.845785975456238,0,0.23089217053664246,0.3706225767781929,0.4246109038326957,0.35809600670790925,0.2714990687556645,0.28310249717417324,0.34459834278139145,0.4980392156862745,0.5019607843137255,0.4980392156862745,0.49019607843137253,0.48627450980392156,0.49411764705882355,0.49019607843137253,0.5058823529411764
112,15.848286032676695,0,0.22978044179054455,0.3733324157746831,0.4263479812436099,0.3581061308141177,0.2713705399369326,0.28618916145218193,0.34657697501723617,0.49411764705882355,0.49411764705882355,0.49019607843137253,0.49411764705882355,0.49019607843137253,0.49411764705882355,0.5019607843137255,0.49019607843137253
113,15.877155065536499,0,0.22762646432107764,0.3732629329059286,0.429335753138131,0.3581569101928078,0.2711731506628607,0.2861100164220913,0.349980221036502,0.49019607843137253,0.5019607843137255,0.5019607843137255,0.4980392156862745,0.5058823529411764,0.5137254901960784,0.4980392156862745,0.5019607843137255
114,15.907633066177368,0,0.22561145828117102,0.3707615439387147,0.4306559290674796,0.3582058449937097,0.2709750838549439,0.283260788855249,0.35148397822911936,0.49019607843137253,0.49411764705882355,0.5019607843137255,0.4980392156862745,0.49019607843137253,0.5019607843137255,0.5019607843137255,0.4980392156862745
115,15.910348057746887,0,0.22901612738821928,0.3687465350527825,0.432254039317872,0.35829543506709327,0.2708367794222922,0.2809655764990416,0.35330431878388835,0.49411764705882355,0.5098039215686274,0.5058823529411764,0.49019607843137253,0.49019607843137253,0.49411764705882355,0.4980392156862745,0.4980392156862745
116,15.936395049095154,0,0.22866871304444664,0.36506393304770335,0.43357421667023344,0.3583544356220064,0.27091579315993924,0.27677087855797455,0.3548080775974002,0.4745098039215686,0.49411764705882355,0.49019607843137253,0.5254901960784314,0.4980392156862745,0.5058823529411764,0.49411764705882355,0.49411764705882355
117,15.96577000617981,0,0.22929406028625013,0.36832963641724253,0.42989161608816717,0.3583408428018553,0.27147837479729703,0.2804907046976031,0.3506133812772275,0.4666666666666667,0.5058823529411764,0.5058823529411764,0.5529411764705883,0.4980392156862745,0.4823529411764706,0.4196078431372549,0.49019607843137253
118,15.968307971954346,0,0.22338800078897522,0.38090606839110486,0.42238744634049985,0.35821972957484677,0.2724210156410633,0.29481599242458806,0.342065695334912,0.47843137254901963,0.49411764705882355,0.49411764705882355,0.5568627450980392,0.5450980392156862,0.48627450980392156,0.5058823529411764,0.5058823529411764
119,15.996868968009947,0,0.23276821226205285,0.39000834696615166,0.4200945088255752,0.35811154135951057,0.2738718603580053,0.3051840173007781,0.3394539061001306,0.5490196078431373,0.4980392156862745,0.5058823529411764,0.4392156862745098,0.5215686274509804,0.4980392156862745,0.4980392156862745,0.4823529411764706
120,16.02578103542328,0,0.2310311362741515,0.4068232438951292,0.42030295173978754,0.35818408610774394,0.27461511660673543,0.3243371632095556,0.3396913347068252,0.7098039215686275,0.5176470588235295,0.48627450980392156,0.6274509803921569,0.5686274509803921,0.5098039215686274,0.5450980392156862,0.5333333333333333
121,16.055837988853455,0,0.24583102431719686,0.40355754052559006,0.41891329436469715,0.3585794060346059,0.2747534680453238,0.3206173370699271,0.3381084341050114,0.4745098039215686,0.5019607843137255,0.4980392156862745,0.47058823529411764,0.4666666666666667,0.5019607843137255,0.5176470588235295,0.5098039215686274
122,16.057131052017212,0,0.24173152367657783,0.397929413926346,0.42099778611938393,0.35911463345864736,0.2746351265476806,0.31420657342363767,0.34048279149130956,0.44313725490196076,0.49411764705882355,0.4980392156862745,0.4627450980392157,0.4745098039215686,0.5058823529411764,0.5058823529411764,0.5019607843137255
123,16.085698008537292,0,0.2428432524226757,0.39146749005602216,0.42224848060299086,0.359715442268727,0.2744164484470089,0.30684606617447124,0.3419074052747306,0.4823529411764706,0.48627450980392156,0.5019607843137255,0.4666666666666667,0.48627450980392156,0.49411764705882355,0.49411764705882355,0.4980392156862745
124,16.088356018066403,0,0.24332963819600853,0.3865341949903489,0.42231796631777097,0.360350032138283,0.27417954987277193,0.30122675607087745,0.3419865535466101,0.48627450980392156,0.49019607843137253,0.49411764705882355,0.48627450980392156,0.49019607843137253,0.5098039215686274,0.5058823529411764,0.4980392156862745
125,16.116628050804135,0,0.24277377097693398,0.3841022888918896,0.4250278024682356,0.36096397667630264,0.27395221457529284,0.2984566735341259,0.34507321458283,0.48627450980392156,0.49411764705882355,0.5019607843137255,0.49411764705882355,0.5058823529411764,0.5098039215686274,0.5019607843137255,0.49019607843137253
126,16.14582002162933,0,0.24041134774722916,0.38146193134114104,0.42801557293974396,0.3615205447955635,0.27382454969325787,0.29544915266531363,0.34847645898120144,0.49411764705882355,0.5019607843137255,0.49411764705882355,0.47843137254901963,0.5098039215686274,0.5019607843137255,0.4980392156862745,0.4980392156862745
127,16.176212072372437,0,0.23832685599254239,0.3787520937676636,0.4327404208221664,0.36205601373286544,0.2737161734541753,0.2923624900081993,0.3538583356154175,0.5019607843137255,0.48627450980392156,0.5058823529411764,0.49411764705882355,0.49411764705882355,0.4980392156862745,0.5058823529411764,0.49019607843137253
128,16.236451983451847,0,0.2370066800631937,0.380072271120025,0.4341300824662952,0.36258056756750845,0.27361731024412533,0.2938662488217111,0.35544124107991437,0.4980392156862745,0.4980392156862745,0.49411764705882355,0.4980392156862745,0.5294117647058824,0.49411764705882355,0.4980392156862745,0.49411764705882355
129,16.238741993904117,0,0.23714564437768995,0.38299056014579164,0.43829906455265594,0.3631001614653922,0.27352651908801673,0.29719034981088616,0.36018995423161626,0.49411764705882355,0.5019607843137255,0.5058823529411764,0.4980392156862745,0.4745098039215686,0.4980392156862745,0.49019607843137253,0.5019607843137255
130,16.265686988830563,0,0.24485826273162078,0.38382435599385867,0.4378126830483615,0.3649228134155267,0.2725478976311196,0.2981400917928688,0.35963593740008704,0.5058823529411764,0.49411764705882355,0.49019607843137253,0.4823529411764706,0.4980392156862745,0.49411764705882355,0.4980392156862745,0.5058823529411764
131,16.295477986335758,0,0.2450667099148715,0.3820872800059573,0.44024458914682085,0.3657015024150921,0.2717059564707197,0.29616146117791853,0.36240601993683863,0.4823529411764706,0.49411764705882355,0.4823529411764706,0.48627450980392156,0.49019607843137253,0.5098039215686274,0.4980392156862745,0.5019607843137255
132,16.29829204082489,0,0.24374653398552287,0.3736798301184557,0.44267649809130577,0.36659385339026673,0.27037102677255537,0.28658488660263537,0.36517610571537884,0.5098039215686274,0.5019607843137255,0.48627450980392156,0.49019607843137253,0.5019607843137255,0.4980392156862745,0.49411764705882355,0.4980392156862745
133,16.326474070549008,0,0.24242635236412305,0.3666620432980957,0.4489299705093405,0.36754465381627016,0.26859055373560636,0.2785912191127435,0.37229917463248446,0.4980392156862745,0.4980392156862745,0.5372549019607843,0.5019607843137255,0.49411764705882355,0.4980392156862745,0.49411764705882355,0.4980392156862745
134,16.355854034423828,0,0.23707616150893546,0.3616592639406551,0.4551139614816335,0.3684256099040536,0.26669115081635936,0.2728927623581646,0.37934310014039374,0.49019607843137253,0.5058823529411764,0.5098039215686274,0.5372549019607843,0.5098039215686274,0.5019607843137255,0.5019607843137255,0.49411764705882355
135,16.35730504989624,0,0.23749306014447533,0.36318789132229296,0.45448861423983006,0.3691416643035378,0.26509940661488607,0.2746339578828429,0.3786307932486832,0.5019607843137255,0.49019607843137253,0.47843137254901963,0.4745098039215686,0.49019607843137253,0.5019607843137255,0.4980392156862745,0.5019607843137255
136,16.386034965515133,0,0.23916065184060942,0.35978322221524467,0.4548360285836026,0.3697905002136744,0.26364384995802287,0.27075584168303296,0.37902651839913665,0.5098039215686274,0.4823529411764706,0.4666666666666667,0.5058823529411764,0.49411764705882355,0.49411764705882355,0.5058823529411764,0.5098039215686274
137,16.415454983711246,0,0.24471929557109892,0.3658977288957704,0.4476792760257336,0.3702977915233222,0.26247717395770614,0.27772062053995716,0.3708745608490634,0.5058823529411764,0.5058823529411764,0.48627450980392156,0.49411764705882355,0.5019607843137255,0.5098039215686274,0.5019607843137255,0.5058823529411764
138,16.445682048797607,0,0.2420789380203504,0.3672873905398992,0.4465675472796357,0.37064809921364744,0.26178304215451875,0.279303526004454,0.36960823712582364,0.4745098039215686,0.49411764705882355,0.49411764705882355,0.5019607843137255,0.4980392156862745,0.4980392156862745,0.5058823529411764,0.5058823529411764
139,16.447846055030826,0,0.23686770863363352,0.3724291356348488,0.4388549260796793,0.37081577101041774,0.261575146243168,0.2851602728192143,0.3608231128514474,0.5137254901960784,0.5019607843137255,0.5176470588235295,0.5215686274509804,0.5137254901960784,0.5098039215686274,0.49411764705882355,0.49411764705882355
140,16.475463032722473,0,0.23714564437768995,0.36402168574734717,0.43697888293125603,0.3708664061295093,0.26156556675746645,0.27558369824393114,0.3586861905554213,0.5098039215686274,0.5098039215686274,0.5058823529411764,0.48627450980392156,0.5019607843137255,0.49411764705882355,0.4980392156862745,0.49019607843137253
141,16.477640986442562,0,0.23464425114143772,0.35672596745196905,0.4364230256732711,0.3708192818676139,0.26141778981814134,0.26727345063367647,0.3580530367982733,0.5215686274509804,0.4980392156862745,0.47058823529411764,0.5137254901960784,0.5215686274509804,0.5058823529411764,0.5058823529411764,0.5019607843137255
142,16.50653600692749,0,0.23346304237261087,0.35846304201685764,0.4450389198979979,0.3706230401867529,0.2612500369766527,0.26925207962773245,0.36786704160114536,0.47843137254901963,0.4980392156862745,0.5450980392156862,0.5098039215686274,0.5098039215686274,0.5058823529411764,0.49019607843137253,0.48627450980392156
143,16.535737037658688,0,0.2313785506179241,0.36290995700124923,0.44830462326753706,0.37034470668984437,0.2608539487458613,0.2743173745206914,0.37158686774077393,0.48627450980392156,0.49019607843137253,0.5215686274509804,0.47843137254901963,0.5019607843137255,0.49411764705882355,0.49019607843137253,0.49019607843137253
144,16.538135051727295,0,0.2354780512585431,0.3561701030789201,0.44899945622412063,0.3700445429876179,0.2599824570602795,0.2666402887720566,0.37237832290436385,0.5529411764705883,0.5058823529411764,0.5490196078431373,0.49411764705882355,0.49411764705882355,0.48627450980392156,0.49019607843137253,0.4980392156862745
145,16.566004037857056,0,0.23978600050542567,0.3530433668699028,0.45323791975622313,0.3696139750918784,0.2589349686644649,0.2630787543135038,0.3772061794652621,0.4666666666666667,0.49411764705882355,0.5490196078431373,0.4745098039215686,0.4745098039215686,0.48627450980392156,0.49019607843137253,0.49019607843137253
146,16.595826983451847,0,0.23777099446551905,0.35200112099255937,0.4540717141812774,0.36901807921262136,0.25795494513394135,0.26189157562035476,0.3781559198263504,0.5607843137254902,0.5019607843137255,0.4392156862745098,0.5058823529411764,0.5098039215686274,0.4980392156862745,0.5137254901960784,0.5137254901960784
147,16.598185062408447,0,0.23888272321161697,0.350958875115216,0.44976377062644596,0.368208935228818,0.25722334635748967,0.2607043969272057,0.3732489214771502,0.4117647058823529,0.5607843137254902,0.6431372549019608,0.4980392156862745,0.4980392156862745,0.5058823529411764,0.48627450980392156,0.4745098039215686
148,16.626293063163754,0,0.24617843866096942,0.3550583743328222,0.44378822683740365,0.36721361045548184,0.256747015751122,0.26537396504881683,0.3664424294386186,0.5019607843137255,0.4627450980392157,0.4196078431372549,0.4627450980392157,0.4980392156862745,0.5098039215686274,0.5137254901960784,0.5176470588235295
149,16.656334042549133,0,0.24464980985631885,0.36020011942777186,0.4403835548843299,0.36600490142247255,0.25655112418344406,0.2712307118635771,0.36256430999701994,0.5019607843137255,0.47058823529411764,0.4470588235294118,0.49019607843137253,0.5058823529411764,0.49019607843137253,0.5058823529411764,0.4980392156862745
150,16.657827973365787,0,0.2511117365726683,0.3597137393464902,0.43419956818107536,0.3646509845677079,0.25643036269051284,0.27067669665294225,0.35552038935179386,0.5058823529411764,0.5019607843137255,0.47843137254901963,0.5058823529411764,0.5019607843137255,0.48627450980392156,0.5058823529411764,0.5137254901960784
151,16.685659050941467,0,0.2613952267625675,0.3542245784847552,0.42308228072009624,0.3631412835554512,0.25627304192516215,0.2644242230668342,0.3428571521193963,0.4823529411764706,0.5058823529411764,0.5019607843137255,0.4666666666666667,0.4627450980392157,0.5019607843137255,0.49411764705882355,0.49019607843137253
152,16.71559298038483,0,0.2582684905535501,0.36367427140357456,0.4228043449760398,0.3614270807846458,0.25627238384204964,0.2751879730934777,0.3425405671363505,0.4980392156862745,0.5098039215686274,0.4980392156862745,0.5254901960784314,0.5058823529411764,0.4980392156862745,0.49411764705882355,0.49411764705882355
153,16.717897057533268,0,0.2502779393015885,0.3696498151926168,0.41363257926320013,0.3596608505464886,0.25610536202392004,0.28199446513200926,0.3320933923673867,0.5254901960784314,0.49411764705882355,0.4823529411764706,0.5294117647058824,0.5215686274509804,0.49411764705882355,0.5137254901960784,0.5137254901960784
154,16.745737075805664,0,0.24909672768673602,0.37381879727897754,0.41314620202794405,0.35780607733270803,0.2559260975906459,0.28674317828371115,0.3315393803985406,0.5490196078431373,0.49019607843137253,0.4666666666666667,0.5019607843137255,0.47058823529411764,0.5098039215686274,0.4980392156862745,0.5098039215686274
155,16.775511980056766,0,0.24583102431719686,0.3668010090356047,0.41231240760288984,0.35587805590253946,0.25563948780710577,0.27874950917292485,0.3305896400374524,0.4666666666666667,0.4980392156862745,0.5098039215686274,0.5058823529411764,0.5019607843137255,0.48627450980392156,0.47843137254901963,0.47843137254901963
156,16.777377009391785,0,0.24548360997342425,0.34727627311013687,0.41467482798656913,0.35378270954699487,0.25535309684430507,0.2565096989861387,0.33328057430232455,0.5176470588235295,0.48627450980392156,0.4666666666666667,0.38823529411764707,0.4745098039215686,0.4980392156862745,0.4980392156862745,0.4980392156862745
157,16.80600607395172,0,0.23909116612582934,0.3362979528096797,0.4107142930834591,0.3513490339104879,0.2555707813367305,0.24400475343481698,0.3287692946200003,0.5098039215686274,0.49411764705882355,0.47058823529411764,0.5529411764705883,0.5647058823529412,0.5176470588235295,0.4980392156862745,0.5058823529411764
158,16.83549201488495,0,0.22755698429834875,0.34706782450387336,0.4181489799623718,0.34858566187641055,0.25647023020833276,0.2562722638958666,0.3372378355322251,0.5019607843137255,0.5058823529411764,0.5176470588235295,0.5098039215686274,0.4980392156862745,0.49411764705882355,0.5098039215686274,0.5058823529411764
159,16.83738398551941,0,0.21484158658697738,0.3476931717456768,0.4178015656185992,0.3457270039461484,0.2577268042519625,0.2569845707875772,0.33684211038177164,0.4980392156862745,0.4980392156862745,0.49019607843137253,0.47058823529411764,0.5098039215686274,0.49411764705882355,0.4980392156862745,0.5019607843137255
160,16.865786075592037,0,0.2087270756374133,0.34310729102377613,0.4148137937240781,0.3427300902100655,0.2592011195193205,0.25176098583443685,0.33343886436250586,0.5019607843137255,0.5098039215686274,0.5372549019607843,0.5294117647058824,0.49411764705882355,0.49411764705882355,0.4980392156862745,0.4980392156862745
161,16.895542979240414,0,0.2060867223557032,0.33824347740384464,0.4062673780990675,0.3394700080647599,0.2608746491878063,0.24622081914003938,0.3237039997270414,0.5176470588235295,0.5019607843137255,0.5254901960784314,0.5019607843137255,0.4745098039215686,0.5098039215686274,0.5137254901960784,0.4980392156862745
162,16.89766800403595,0,0.20719845110180107,0.34199556227767824,0.394872162009096,0.33603210084037693,0.2627823980921425,0.2504946621111971,0.3107241856160699,0.5058823529411764,0.48627450980392156,0.47058823529411764,0.47843137254901963,0.4549019607843137,0.5098039215686274,0.5058823529411764,0.5137254901960784
163,16.926010966300964,0,0.20052807862521366,0.3712479240199963,0.4007782200833581,0.33248153173220846,0.26508796634245263,0.28381480406588383,0.3174515293827221,0.48627450980392156,0.5058823529411764,0.4980392156862745,0.5490196078431373,0.5803921568627451,0.49411764705882355,0.4980392156862745,0.49411764705882355
164,16.955986022949222,0,0.1930239103005592,0.37666760201297683,0.403071163290334,0.3292461682259806,0.2675809942679502,0.28998813262190115,0.320063325101081,0.4980392156862745,0.5019607843137255,0.5019607843137255,0.44313725490196076,0.41568627450980394,0.4823529411764706,0.5058823529411764,0.4980392156862745
165,16.985828042030338,0,0.1885075152934387,0.3615897810719006,0.39945804130798385,0.32623721448654885,0.27022187693570243,0.27281361732807397,0.3159477689483159,0.47058823529411764,0.5137254901960784,0.5098039215686274,0.5098039215686274,0.5372549019607843,0.5137254901960784,0.5019607843137255,0.49019607843137253
166,16.98901104927063,0,0.19566426500528217,0.36360478853482003,0.3993885584392293,0.3234884288808689,0.27321039605986513,0.275108828063387,0.31586862391822523,0.4980392156862745,0.5098039215686274,0.5372549019607843,0.5019607843137255,0.5490196078431373,0.49019607843137253,0.48627450980392156,0.49019607843137253
167,17.015496015548706,0,0.20462757499679432,0.3713868897575054,0.39146749005602216,0.3206951594502153,0.27617655980893546,0.2839730941260652,0.30684606617447124,0.5058823529411764,0.49019607843137253,0.4745098039215686,0.5019607843137255,0.5098039215686274,0.49019607843137253,0.5058823529411764,0.5098039215686274
168,17.017428040504456,0,0.2137298578408795,0.3777793307590747,0.3841022888918896,0.31808475770101097,0.2792244247385113,0.2912544563451409,0.2984566735341259,0.4823529411764706,0.49411764705882355,0.5176470588235295,0.5607843137254902,0.5450980392156862,0.5058823529411764,0.49019607843137253,0.49019607843137253
169,17.04575800895691,0,0.22644525555225084,0.38486660329421485,0.40404392060687166,0.3158295652266938,0.28203437155129396,0.29932727210691223,0.32117135228056193,0.5137254901960784,0.5137254901960784,0.5019607843137255,0.49411764705882355,0.5333333333333333,0.5176470588235295,0.5176470588235295,0.5058823529411764
170,17.07548201084137,0,0.2409672092742525,0.39341301891922553,0.44795720750075163,0.31430050101034396,0.28487670707529306,0.30906213674237676,0.37119114096942607,0.4627450980392157,0.49411764705882355,0.5176470588235295,0.49019607843137253,0.49019607843137253,0.4980392156862745,0.4823529411764706,0.49019607843137253
171,17.105484008789062,0,0.21852419143808205,0.3820872800059573,0.4446915041312125,0.31417894365827914,0.28691280974176964,0.29616146117791853,0.3674713148297976,0.5529411764705883,0.49019607843137253,0.5215686274509804,0.4823529411764706,0.48627450980392156,0.5058823529411764,0.49411764705882355,0.5058823529411764
172,17.107460975646973,0,0.2233185207662463,0.34421901976987407,0.43287938655967545,0.3145538970474355,0.28734741366447986,0.25302730955767655,0.3540166256755989,0.5098039215686274,0.5176470588235295,0.6196078431372549,0.4392156862745098,0.3607843137254902,0.5058823529411764,0.5137254901960784,0.5176470588235295
173,17.135776996612552,0,0.228390778723403,0.3351862240635818,0.4164119082435088,0.31479414438943215,0.2881804528730231,0.24273842971157725,0.3352592097799579,0.4627450980392157,0.4823529411764706,0.4745098039215686,0.5529411764705883,0.5294117647058824,0.49411764705882355,0.49019607843137253,0.49411764705882355
174,17.16586196422577,0,0.21359089068035764,0.3535992298199389,0.4162729368139486,0.31507058143993283,0.28957502500026944,0.2637119145542293,0.33510091323619906,0.5019607843137255,0.4980392156862745,0.4588235294117647,0.5450980392156862,0.48627450980392156,0.48627450980392156,0.49019607843137253,0.4980392156862745
175,17.16781497001648,0,0.2053918893991196,0.36575876315826134,0.4135630992404712,0.3158509772412653,0.2904942439204507,0.27756233047977585,0.3320142505790848,0.5725490196078431,0.5176470588235295,0.49411764705882355,0.5058823529411764,0.5176470588235295,0.5098039215686274,0.5137254901960784,0.5176470588235295
176,17.196063995361328,0,0.20323791762170393,0.35443302709101876,0.40786549261849825,0.3168676021874618,0.29120482455966173,0.2646616581571063,0.3255243451444934,0.4549019607843137,0.4823529411764706,0.4666666666666667,0.4235294117647059,0.4588235294117647,0.49411764705882355,0.49019607843137253,0.49019607843137253
177,17.19902205467224,0,0.197887722497478,0.32511118134153594,0.4098804986584049,0.3179489980725134,0.2913554267178664,0.23126236987561336,0.3278195542589121,0.5215686274509804,0.47843137254901963,0.4392156862745098,0.4980392156862745,0.5098039215686274,0.4980392156862745,0.5019607843137255,0.49019607843137253
178,17.2256680727005,0,0.18920234398098384,0.31225681775035424,0.420580887483844,0.3186222203383828,0.29128651277301226,0.2166205018661762,0.34000791968987104,0.5882352941176471,0.5215686274509804,0.48627450980392156,0.5607843137254902,0.4823529411764706,0.5058823529411764,0.5176470588235295,0.5019607843137255
179,17.255948066711426,0,0.18044747832669691,0.3197609867865151,0.40022235428729636,0.31887029822106033,0.2915739508335733,0.22516818699804447,0.31681836590020784,0.4666666666666667,0.5137254901960784,0.5333333333333333,0.5568627450980392,0.5411764705882353,0.49411764705882355,0.48627450980392156,0.48627450980392156
180,17.258080005645752,0,0.18176765710207116,0.3393552061499426,0.3846581518419257,0.31908496947085985,0.29215550666037654,0.2474871428632791,0.2990898337748515,0.4392156862745098,0.47843137254901963,0.5019607843137255,0.4117647058823529,0.4549019607843137,0.5019607843137255,0.5098039215686274,0.5137254901960784
181,17.285701036453247,0,0.18892440965994023,0.3505419764796761,0.37854364516140004,0.31949360504493646,0.2925534200182237,0.2602295251257672,0.2921250549179272,0.5019607843137255,0.49411764705882355,0.47058823529411764,0.5568627450980392,0.6941176470588235,0.47058823529411764,0.4666666666666667,0.49019607843137253
182,17.3163480758667,0,0.1973318595474418,0.3642996200683909,0.3654113488144888,0.3201741780667544,0.2926310689628148,0.2759002816060826,0.27716660532932236,0.48627450980392156,0.49411764705882355,0.4745098039215686,0.4235294117647059,0.4117647058823529,0.5294117647058824,0.5176470588235295,0.5098039215686274
183,17.318717002868652,0,0.19448305339042973,0.35561423870587117,0.3743746616520265,0.32133340929924925,0.292246443696978,0.2660071269104367,0.28737634014533103,0.4745098039215686,0.4823529411764706,0.49019607843137253,0.5176470588235295,0.5176470588235295,0.4823529411764706,0.4823529411764706,0.47058823529411764
184,17.345708966255188,0,0.17843247086377745,0.3379655445058138,0.3828515929852698,0.32249811915470034,0.29138381668268243,0.24590423739878223,0.29703205812981043,0.5058823529411764,0.5176470588235295,0.5294117647058824,0.5019607843137255,0.41568627450980394,0.4980392156862745,0.49019607843137253,0.4980392156862745
185,17.375709056854248,0,0.18294887156294917,0.32434686807762086,0.3872985079696614,0.3233904636462975,0.2904057025657218,0.23039177259954258,0.3020973530227694,0.5098039215686274,0.49019607843137253,0.4980392156862745,0.49411764705882355,0.4627450980392157,0.4980392156862745,0.49019607843137253,0.49411764705882355
186,17.377959966659546,0,0.19351028753581526,0.3272651556803746,0.38632574638408534,0.3238386312130603,0.29001194842281713,0.23371587196782329,0.3009893209806054,0.49019607843137253,0.49019607843137253,0.4823529411764706,0.49019607843137253,0.4980392156862745,0.5019607843137255,0.5137254901960784,0.5098039215686274
187,17.406242966651913,0,0.19239855878971737,0.34519178277846296,0.3879238552114649,0.32397425630732546,0.29040575119255274,0.25413534322073494,0.30280965991448,0.5019607843137255,0.5019607843137255,0.5019607843137255,0.4549019607843137,0.49019607843137253,0.5019607843137255,0.5019607843137255,0.5019607843137255
188,17.436359047889713,0,0.18545025768413748,0.3527654339718719,0.38486660329421485,0.32411089283967476,0.29098820175304585,0.2627621725722467,0.29932727210691223,0.5098039215686274,0.5058823529411764,0.4980392156862745,0.5647058823529412,0.5411764705882353,0.5019607843137255,0.5019607843137255,0.49019607843137253
189,17.43912696838379,0,0.18816009668062772,0.34859645188551114,0.3756253561356334,0.3241180085659404,0.29157990599947303,0.2580134594205448,0.2888009539287521,0.47058823529411764,0.5137254901960784,0.5294117647058824,0.4823529411764706,0.4980392156862745,0.49019607843137253,0.4980392156862745,0.5019607843137255
190,17.46617603302002,0,0.19059200135607432,0.34060590063354945,0.3678432549129481,0.3238978749021284,0.2923566807227924,0.2489117566467002,0.2799366878660739,0.5019607843137255,0.49019607843137253,0.47843137254901963,0.47058823529411764,0.5058823529411764,0.49411764705882355,0.49411764705882355,0.4745098039215686
191,17.496333003044132,0,0.19281545884827012,0.340536417764795,0.3722901698973397,0.3234001744244427,0.29352201300167996,0.24883261161660952,0.2850019827590329,0.5098039215686274,0.49019607843137253,0.49411764705882355,0.49019607843137253,0.47058823529411764,0.48627450980392156,0.5019607843137255,0.5137254901960784
192,17.498637080192562,0,0.18954975832475648,0.34602557862653,0.3818093456849136,0.32282010009508977,0.29474152691653127,0.25508508520271755,0.295844877815767,0.5333333333333333,0.5215686274509804,0.5058823529411764,0.4980392156862745,0.4980392156862745,0.5019607843137255,0.5098039215686274,0.49411764705882355
193,17.526148080825806,0,0.18135075704351844,0.35672596745196905,0.38229572861222083,0.3223693553062854,0.29545972089657824,0.26727345063367647,0.29639889626819055,0.48627450980392156,0.5176470588235295,0.5215686274509804,0.5176470588235295,0.5411764705882353,0.5019607843137255,0.5058823529411764,0.49019607843137253
194,17.55656898021698,0,0.1885075152934387,0.36020011942777186,0.3754169075293699,0.3221714522086995,0.29557841899098186,0.2712307118635771,0.28856351883848,0.49019607843137253,0.49019607843137253,0.4823529411764706,0.45098039215686275,0.48627450980392156,0.49019607843137253,0.5019607843137255,0.5333333333333333
195,17.559450030326847,0,0.19510840205524602,0.35700389892698714,0.36916343226530957,0.3221235418130368,0.29532233389013757,0.2675900307540392,0.28144044667958573,0.5254901960784314,0.4627450980392157,0.5019607843137255,0.49019607843137253,0.5176470588235295,0.47843137254901963,0.4980392156862745,0.4588235294117647
196,17.585927963256836,0,0.20219567459038615,0.35220956959882294,0.3687465350527825,0.32204122145088365,0.2952507551949462,0.26212901071062683,0.2809655764990416,0.44313725490196076,0.49019607843137253,0.5176470588235295,0.4588235294117647,0.4666666666666667,0.5254901960784314,0.48627450980392156,0.4980392156862745
197,17.61536407470703,0,0.20302946901544033,0.34866593475426566,0.3668704919043593,0.32183702117868684,0.29554027448387277,0.25809260445063553,0.27882865420301556,0.5333333333333333,0.5372549019607843,0.49019607843137253,0.5568627450980392,0.5372549019607843,0.5137254901960784,0.5058823529411764,0.5529411764705883
198,17.617426991462708,0,0.19274597740252833,0.35325181547616635,0.3667315261668502,0.32160911694728533,0.2957972445930408,0.2633161894037759,0.27867036414283414,0.4666666666666667,0.48627450980392156,0.5098039215686274,0.48627450980392156,0.49019607843137253,0.4823529411764706,0.48627450980392156,0.47058823529411764
199,17.645349025726322,0,0.17391607016460572,0.3678432549129481,0.3556837215746257,0.3214424306542894,0.2960358062048971,0.2799366878660739,0.2660862719405274,0.5411764705882353,0.4980392156862745,0.49019607843137253,0.45098039215686275,0.4549019607843137,0.4745098039215686,0.5137254901960784,0.5372549019607843
200,17.67574906349182,0,0.12381879087541998,0.3847276347106802,0.3624235769199676,0.3213429563670635,0.2966092267628786,0.29916897880494214,0.2737633593100566,0.49411764705882355,0.49019607843137253,0.47843137254901963,0.48627450980392156,0.5333333333333333,0.5529411764705883,0.5019607843137255,0.48627450980392156
201,17.677909016609192,0,0.06552252453512414,0.32566704542998226,0.36798222065045716,0.32150027226973105,0.29667774196771873,0.23189553141305436,0.2800949779262553,0.5019607843137255,0.4666666666666667,0.49411764705882355,0.4980392156862745,0.43529411764705883,0.5333333333333333,0.49411764705882355,0.4627450980392157
202,17.705502033233646,0,0.08483881327734119,0.31892719022694166,0.38521401763798746,0.32135090847482184,0.29599437776580295,0.22421844420561465,0.2997229972573657,0.592156862745098,0.5607843137254902,0.49019607843137253,0.6784313725490196,0.45098039215686275,0.47058823529411764,0.5019607843137255,0.5372549019607843
203,17.73588001728058,0,0.18913285826620377,0.3364369185471887,0.3822262457434663,0.3209091953094234,0.29580901228613615,0.24416304349499837,0.2963197512380999,0.4823529411764706,0.49019607843137253,0.4980392156862745,0.4588235294117647,0.5176470588235295,0.4745098039215686,0.49019607843137253,0.5333333333333333
204,17.737869024276733,0,0.2494441434535214,0.3561701030789201,0.3720817212910762,0.3204532701422262,0.2963723281886416,0.2666402887720566,0.2847645476687608,0.47843137254901963,0.48627450980392156,0.49411764705882355,0.45098039215686275,0.49411764705882355,0.5098039215686274,0.49411764705882355,0.47843137254901963
205,17.7660710811615,0,0.24777655033437454,0.3776403650215657,0.3672873905398992,0.3199275751979497,0.2970836495765778,0.29109616628495955,0.279303526004454,0.4588235294117647,0.49411764705882355,0.4980392156862745,0.4196078431372549,0.48627450980392156,0.4980392156862745,0.49411764705882355,0.5176470588235295
206,17.796131014823914,0,0.20393274630924912,0.38347694022707324,0.377362430700522,0.31971611331899435,0.29762491159034293,0.297744365021521,0.29077958292280803,0.47843137254901963,0.48627450980392156,0.4980392156862745,0.47058823529411764,0.5254901960784314,0.5019607843137255,0.5019607843137255,0.4549019607843137
207,17.799203991889954,0,0.17141468404341742,0.3712479240199963,0.3894524825931027,0.31980885279013055,0.29752884118128514,0.28381480406588383,0.3045508554391582,0.5450980392156862,0.5019607843137255,0.4823529411764706,0.5647058823529412,0.5254901960784314,0.5019607843137255,0.5058823529411764,0.5137254901960784
208,17.826122999191284,0,0.1805169611954514,0.3561701030789201,0.3898693812286426,0.3199882776919469,0.29684722754528436,0.2666402887720566,0.30502572724059673,0.5098039215686274,0.5176470588235295,0.48627450980392156,0.4980392156862745,0.49411764705882355,0.49411764705882355,0.5019607843137255,0.5058823529411764
209,17.856289982795715,0,0.19844358829353972,0.3527654339718719,0.38778488947395584,0.3200748658689651,0.29618249876589153,0.2627621725722467,0.3026513698542986,0.47843137254901963,0.49019607843137253,0.48627450980392156,0.4549019607843137,0.5176470588235295,0.49411764705882355,0.4980392156862745,0.5058823529411764
210,17.858705043792728,0,0.19594219790331305,0.3553363072308531,0.38806281810294835,0.3200252502924296,0.2957866520483607,0.265690546790074,0.30296794673287264,0.4980392156862745,0.4823529411764706,0.5058823529411764,0.4980392156862745,0.5019607843137255,0.5019607843137255,0.5019607843137255,0.49411764705882355
211,17.885668992996216,0,0.19114786715213603,0.35985270508399925,0.3933435332044454,0.3199774176996964,0.29534267611442766,0.27083498671312367,0.3089829884704973,0.5058823529411764,0.4980392156862745,0.4980392156862745,0.47843137254901963,0.4745098039215686,0.5058823529411764,0.49411764705882355,0.49411764705882355
212,17.915839076042175,0,0.19698444520366917,0.3630489255847839,0.3905642113392006,0.3199653841799251,0.294668335431446,0.2744756678226615,0.305817179162398,0.5254901960784314,0.5058823529411764,0.5019607843137255,0.5490196078431373,0.5098039215686274,0.5019607843137255,0.5058823529411764,0.5058823529411764
213,17.91812801361084,0,0.2109505331296091,0.36652307756058666,0.3864647121215944,0.31985369483275894,0.2941220891675062,0.2784329290525621,0.3011476110407868,0.4745098039215686,0.5058823529411764,0.48627450980392156,0.44313725490196076,0.4823529411764706,0.49411764705882355,0.49411764705882355,0.5019607843137255
214,17.94562602043152,0,0.20622568951622505,0.3670789433566484,0.3942468133442797,0.3197193388987821,0.2939371824009449,0.27906609253507636,0.31001187710346495,0.4823529411764706,0.4823529411764706,0.5058823529411764,0.45098039215686275,0.4823529411764706,0.5019607843137255,0.4980392156862745,0.4823529411764706
215,17.975756049156193,0,0.19170373010217223,0.3673568719856409,0.4025152918022211,0.3196692273285707,0.29364980269258106,0.27938266941365036,0.3194301551349893,0.5333333333333333,0.4980392156862745,0.5098039215686274,0.5647058823529412,0.5215686274509804,0.4980392156862745,0.5019607843137255,0.5058823529411764
216,17.977828979492188,0,0.1955253021137987,0.3652029002082252,0.4037659919778792,0.3197388544669458,0.29303668805247673,0.27692917023905034,0.32085477540198787,0.5058823529411764,0.5019607843137255,0.5019607843137255,0.4980392156862745,0.5058823529411764,0.4980392156862745,0.49411764705882355,0.4980392156862745
217,18.005805015563965,0,0.2043496463678018,0.36068649950905346,0.4022373631732286,0.319864964911284,0.29234235201659925,0.2717847270742119,0.3191135782564153,0.5176470588235295,0.49411764705882355,0.4980392156862745,0.49019607843137253,0.5058823529411764,0.4980392156862745,0.5019607843137255,0.49411764705882355
218,18.03577101230621,0,0.2100472558358004,0.3602696022965263,0.404808235009197,0.3198876298772002,0.29185964967447986,0.27130985689366777,0.3220419508533482,0.48627450980392156,0.49019607843137253,0.5019607843137255,0.4823529411764706,0.49411764705882355,0.49411764705882355,0.49411764705882355,0.49411764705882355
219,18.03774499893189,0,0.20441913208258197,0.36367427140357456,0.4125903362318823,0.3199284504809072,0.29160330036785387,0.2751879730934777,0.3309062169160264,0.4980392156862745,0.4980392156862745,0.49019607843137253,0.5058823529411764,0.49019607843137253,0.4980392156862745,0.5058823529411764,0.4980392156862745
220,18.066401004791263,0,0.20289050327793132,0.36700945764186826,0.41272930339240416,0.3200334844358076,0.29130381582036663,0.2789869442631969,0.3310645085971022,0.5098039215686274,0.49411764705882355,0.5058823529411764,0.5176470588235295,0.5058823529411764,0.5019607843137255,0.5019607843137255,0.5019607843137255
221,18.096480965614322,0,0.2097693243607823,0.3644385858058999,0.40828238840801256,0.3202411372130034,0.2909277975036119,0.276058571666264,0.3259992137041432,0.48627450980392156,0.47843137254901963,0.4980392156862745,0.47058823529411764,0.47058823529411764,0.49411764705882355,0.5019607843137255,0.4980392156862745
222,18.09864497184753,0,0.20775431832087568,0.35769873046055795,0.4064063495286277,0.3203989247959314,0.2906900123001569,0.26838148429673486,0.3238622962708002,0.48627450980392156,0.5254901960784314,0.5019607843137255,0.49411764705882355,0.4745098039215686,0.5019607843137255,0.49411764705882355,0.5019607843137255
223,18.125647068023678,0,0.20476654642635453,0.35776821332931247,0.4071706596619146,0.3204130816873218,0.29069299150400113,0.2684606293268255,0.32473288998090344,0.4823529411764706,0.48627450980392156,0.49411764705882355,0.49411764705882355,0.48627450980392156,0.5019607843137255,0.5019607843137255,0.4980392156862745
224,18.155819058418274,0,0.2060867223557032,0.3637437571183547,0.40355754052559006,0.3203690047068341,0.2908382430899044,0.2752671213653571,0.3206173370699271,0.5019607843137255,0.4980392156862745,0.49411764705882355,0.47843137254901963,0.5137254901960784,0.49411764705882355,0.5019607843137255,0.5058823529411764
225,18.15800607204437,0,0.20914397569596602,0.3677737720441936,0.40022235428729636,0.32035042601561386,0.29097758813673896,0.27985754283598324,0.31681836590020784,0.5058823529411764,0.5058823529411764,0.5098039215686274,0.48627450980392156,0.49019607843137253,0.49411764705882355,0.4980392156862745,0.5019607843137255
226,18.185680031776425,0,0.20810173266464824,0.3697192980613713,0.3985547625911623,0.32036923649472837,0.29108572610434974,0.2820736101621,0.3149188819362426,0.4980392156862745,0.5098039215686274,0.5019607843137255,0.4980392156862745,0.5019607843137255,0.5098039215686274,0.5019607843137255,0.49019607843137253
227,18.21602404117584,0,0.2064341381224886,0.3669399747731138,0.4023763289107376,0.3204218993526715,0.2910978714658323,0.27890779923310627,0.31927186831659665,0.5137254901960784,0.49411764705882355,0.49019607843137253,0.5176470588235295,0.5058823529411764,0.49411764705882355,0.49411764705882355,0.5058823529411764
228,18.217714071273804,0,0.20650361814521748,0.3667315261668502,0.40279322754627755,0.32048884228997687,0.2910467824963183,0.27867036414283414,0.3197467401180351,0.5058823529411764,0.5372549019607843,0.5098039215686274,0.49411764705882355,0.5019607843137255,0.5058823529411764,0.49019607843137253,0.49411764705882355
229,18.246132969856266,0,0.209005009958457,0.3653418659457342,0.4037659919778792,0.32056045340305556,0.29093960896085513,0.27708746029923165,0.32085477540198787,0.49411764705882355,0.5333333333333333,0.49019607843137253,0.4980392156862745,0.49019607843137253,0.5058823529411764,0.5019607843137255,0.5019607843137255
230,18.277099967002872,0,0.20622568951622505,0.36575876315826134,0.4057115151490313,0.32062086413606694,0.2908809860743292,0.27756233047977585,0.3230708394863159,0.5019607843137255,0.5019607843137255,0.49411764705882355,0.49411764705882355,0.49411764705882355,0.4980392156862745,0.4980392156862745,0.4980392156862745
231,18.279532074928287,0,0.20671206959750668,0.3652723830769797,0.4070316925013928,0.3207174483686387,0.2907804095789346,0.277008315269141,0.32457459829982765,0.5019607843137255,0.49019607843137253,0.49411764705882355,0.5098039215686274,0.49411764705882355,0.4980392156862745,0.5019607843137255,0.5058823529411764
232,18.305917978286747,0,0.20921346141074612,0.3654808316832433,0.40675376387240036,0.32082713266947444,0.29071174849360154,0.27724575035941307,0.3242580214212537,0.48627450980392156,0.49019607843137253,0.4980392156862745,0.48627450980392156,0.4980392156862745,0.4980392156862745,0.5019607843137255,0.49411764705882355
233,18.336942076683048,0,0.20990829009829134,0.36388272143285094,0.4065453124201112,0.32096625565378084,0.2906429253188319,0.27542540980464414,0.32402058308919285,0.5098039215686274,0.49019607843137253,0.49411764705882355,0.5019607843137255,0.5058823529411764,0.5019607843137255,0.49411764705882355,0.5019607843137255
234,18.33837902545929,0,0.20858811274592987,0.36367427140357456,0.40487772072397715,0.3210916042777671,0.290581302156835,0.2751879730934777,0.3221210991252276,0.5098039215686274,0.4980392156862745,0.5019607843137255,0.4823529411764706,0.4980392156862745,0.5058823529411764,0.5019607843137255,0.5019607843137255
235,18.365844011306766,0,0.20699000391855032,0.3642301371996363,0.40209839743571957,0.32119367199597826,0.29058347577617943,0.2758211365759919,0.31895528819623387,0.5058823529411764,0.4627450980392157,0.5058823529411764,0.5058823529411764,0.48627450980392156,0.49019607843137253,0.4980392156862745,0.5019607843137255
236,18.39575302600861,0,0.20504447505534704,0.36436910293714536,0.40265426323178133,0.3212934218352463,0.2906038261049414,0.2759794266361733,0.3195884516787481,0.5058823529411764,0.5098039215686274,0.48627450980392156,0.48627450980392156,0.5098039215686274,0.48627450980392156,0.5019607843137255,0.49411764705882355
237,18.39802098274231,0,0.20476654642635453,0.3648554858644526,0.4023763289107376,0.3214102299668195,0.2905926095159304,0.27653344508859684,0.31927186831659665,0.5098039215686274,0.48627450980392156,0.4980392156862745,0.4980392156862745,0.5137254901960784,0.4980392156862745,0.4980392156862745,0.5058823529411764
238,18.42565500736237,0,0.2056698237201633,0.3641606543308818,0.40272374467752303,0.32153235787370105,0.2905454933585069,0.27574199154590123,0.31966759508794446,0.5098039215686274,0.4588235294117647,0.5137254901960784,0.5019607843137255,0.4980392156862745,0.4980392156862745,0.49411764705882355,0.4980392156862745
239,18.457625031471245,0,0.20518344648490722,0.3626320283722568,0.4014035630561232,0.32162743953719575,0.2905230536969075,0.2740007976421174,0.3181638314117496,0.48627450980392156,0.5254901960784314,0.49411764705882355,0.4980392156862745,0.5019607843137255,0.4980392156862745,0.4980392156862745,0.4980392156862745
240,18.45831501483917,0,0.20400223202402923,0.3630489255847839,0.4025152918022211,0.32170815521392687,0.29050434533413805,0.2744756678226615,0.3194301551349893,0.49411764705882355,0.47058823529411764,0.49411764705882355,0.49019607843137253,0.48627450980392156,0.4980392156862745,0.4980392156862745,0.49411764705882355
241,18.4860600233078,0,0.20365481768025662,0.3618677139699315,0.4023068488880087,0.32177639162493604,0.2904739632901465,0.27313019906933106,0.3191927265282947,0.4666666666666667,0.5098039215686274,0.5019607843137255,0.49019607843137253,0.4666666666666667,0.5019607843137255,0.5019607843137255,0.5098039215686274
242,18.515715003013607,0,0.20573930374289223,0.36290995700124923,0.40279322754627755,0.3218155005641928,0.2904736455948508,0.2743173745206914,0.3197467401180351,0.49411764705882355,0.47843137254901963,0.4980392156862745,0.47843137254901963,0.4980392156862745,0.4980392156862745,0.49411764705882355,0.4980392156862745
243,18.51796102523804,0,0.20483602787209626,0.36207616257619507,0.4016814988001796,0.3218564654274983,0.2904746019225266,0.27336763415960313,0.3184804163947954,0.5137254901960784,0.5058823529411764,0.49411764705882355,0.47843137254901963,0.47843137254901963,0.4980392156862745,0.5058823529411764,0.5019607843137255
244,18.545919060707085,0,0.20351584625069644,0.36179822825515134,0.40216787745844845,0.32189798949936,0.2904660468420642,0.2730510507974517,0.3190344299845358,0.5137254901960784,0.5254901960784314,0.5098039215686274,0.5098039215686274,0.5058823529411764,0.5019607843137255,0.4980392156862745,0.49019607843137253
245,18.576117992401127,0,0.2045580949740654,0.3615202996261589,0.4019594345442361,0.3219437894905586,0.29043385587996046,0.2727344739188776,0.3187970013778412,0.5254901960784314,0.5019607843137255,0.49019607843137253,0.5215686274509804,0.5137254901960784,0.49019607843137253,0.5058823529411764,0.5019607843137255
246,18.577818036079407,0,0.2043496463678018,0.36193719683868597,0.402862710415032,0.3219865973107579,0.2904162756596696,0.27320934409942177,0.3198258851481258,0.5019607843137255,0.4980392156862745,0.47843137254901963,0.48627450980392156,0.49411764705882355,0.49411764705882355,0.49411764705882355,0.4980392156862745
247,18.605815052986145,0,0.20372429912599838,0.36179822825515134,0.40327960620454634,0.3220230025982126,0.2904141133865856,0.2730510507974517,0.32030075370777555,0.49411764705882355,0.5019607843137255,0.47843137254901963,0.47058823529411764,0.49019607843137253,0.5019607843137255,0.4980392156862745,0.4980392156862745
248,18.635897994041446,0,0.20560034085140877,0.36068649950905346,0.40397443916112996,0.32209132329572887,0.2904134715124168,0.2717847270742119,0.3210922088713655,0.5098039215686274,0.4980392156862745,0.4980392156862745,0.5254901960784314,0.5137254901960784,0.4980392156862745,0.5019607843137255,0.5019607843137255
249,18.63835501670837,0,0.20594775661819417,0.36179822825515134,0.40341857763410666,0.32214286773655965,0.29045446393092655,0.2730510507974517,0.3204590502515345,0.5019607843137255,0.5137254901960784,0.5019607843137255,0.4745098039215686,0.5019607843137255,0.5019607843137255,0.4980392156862745,0.5019607843137255
250,18.666277050971985,0,0.20615620380144492,0.36617566179380123,0.4054335836740133,0.32224791790040364,0.2905013564049276,0.27803720228121426,0.3227542593659531,0.4980392156862745,0.4980392156862745,0.5215686274509804,0.5058823529411764,0.5058823529411764,0.49411764705882355,0.5058823529411764,0.4980392156862745
251,18.695715069770813,0,0.2056698237201633,0.37090050967622373,0.4054335836740133,0.3224506334333614,0.29055413920905376,0.2834190789154304,0.3227542593659531,0.5019607843137255,0.4745098039215686,0.5137254901960784,0.5098039215686274,0.5137254901960784,0.5058823529411764,0.4980392156862745,0.49411764705882355
252,18.72652900218964,0,0.20851863272320093,0.36916343226530957,0.40605893091581674,0.32278204473717076,0.29062000587250025,0.28144044667958573,0.3234665662576637,0.5019607843137255,0.49411764705882355,0.5098039215686274,0.49019607843137253,0.4627450980392157,0.5098039215686274,0.5058823529411764,0.4980392156862745
253,18.728950023651127,0,0.2064341381224886,0.36839911928599706,0.41175654038381526,0.32319942179456185,0.29075978369813044,0.2805698497276938,0.32995647493404373,0.4980392156862745,0.5019607843137255,0.5137254901960784,0.5019607843137255,0.5098039215686274,0.5058823529411764,0.5019607843137255,0.5058823529411764
254,18.756136059761047,0,0.2067815524662612,0.3701361952738984,0.41182602182955697,0.32370578919442117,0.2910182385465375,0.28254848034264407,0.3300356183432401,0.5176470588235295,0.5137254901960784,0.5019607843137255,0.47843137254901963,0.47058823529411764,0.48627450980392156,0.5019607843137255,0.5137254901960784
255,18.758020997047428,0,0.2082406969791445,0.37270706853287966,0.4045997864029334,0.3242675441756524,0.29151142645430894,0.2854768545604714,0.3218045157630761,0.49019607843137253,0.5019607843137255,0.4745098039215686,0.5137254901960784,0.5215686274509804,0.5019607843137255,0.49411764705882355,0.49019607843137253
256,18.78631401062012,0,0.21018621872728385,0.3763201876692042,0.40063925292283625,0.32494114735169766,0.29208582441159303,0.2895924074714477,0.3172932377016463,0.5098039215686274,0.5176470588235295,0.5215686274509804,0.5058823529411764,0.5137254901960784,0.49411764705882355,0.5019607843137255,0.4980392156862745
257,18.816159009933468,0,0.2166481482896589,0.3918843901145749,0.4103668787396865,0.3257555819347109,0.2927013833604009,0.3073209395968041,0.3283735694695469,0.4627450980392157,0.49019607843137253,0.49019607843137253,0.4392156862745098,0.5098039215686274,0.5058823529411764,0.5058823529411764,0.4980392156862745
258,18.81861901283264,0,0.22297110642247367,0.3937604332629981,0.4057115151490313,0.3271595844253771,0.29289865917186725,0.30945786189283014,0.3230708394863159,0.5725490196078431,0.47843137254901963,0.4745098039215686,0.4745098039215686,0.4549019607843137,0.47843137254901963,0.47843137254901963,0.5058823529411764
259,18.846500992774967,0,0.24312118674371938,0.3978599339036171,0.4102279130021775,0.329137845476412,0.2923344517774606,0.31412743163533574,0.32821527940936557,0.43137254901960786,0.5058823529411764,0.49411764705882355,0.5411764705882353,0.47058823529411764,0.49019607843137253,0.49411764705882355,0.48627450980392156
260,18.875848054885864,0,0.24374653398552287,0.39911062554119847,0.40918566427880854,0.33145160734774104,0.2914036596715079,0.31555204217696814,0.3270280974744278,0.4823529411764706,0.49411764705882355,0.49411764705882355,0.47058823529411764,0.4823529411764706,0.5137254901960784,0.5019607843137255,0.4980392156862745
261,18.878440022468567,0,0.23846582315306422,0.3927181859626419,0.4150222437533545,0.3338579303918261,0.29035635767854534,0.3082706815787868,0.3336763010736723,0.49411764705882355,0.49411764705882355,0.5215686274509804,0.4823529411764706,0.4980392156862745,0.49411764705882355,0.5058823529411764,0.4980392156862745
262,18.906481981277466,0,0.23158700064720045,0.38361590596458234,0.41224292188810974,0.33617261617294353,0.28936677897573576,0.2979026550817024,0.33051049176557296,0.5137254901960784,0.5215686274509804,0.4980392156862745,0.5019607843137255,0.5019607843137255,0.5098039215686274,0.5019607843137255,0.4980392156862745
263,18.93574106693268,0,0.2347832225709979,0.3836853888333368,0.4100889501106941,0.3381982964886484,0.28877174865407007,0.2979818001117931,0.32805699259097293,0.49411764705882355,0.5019607843137255,0.5058823529411764,0.5019607843137255,0.49019607843137253,0.49411764705882355,0.5019607843137255,0.5019607843137255
264,18.9379540681839,0,0.23784047448824797,0.38570039771926906,0.4059199637552949,0.34003982699546076,0.28855488595508805,0.3002770124680005,0.32330827457658795,0.49019607843137253,0.49019607843137253,0.5019607843137255,0.5058823529411764,0.5058823529411764,0.5019607843137255,0.4980392156862745,0.5058823529411764
265,18.995916008949283,0,0.23381045813939624,0.39994441996625263,0.40605893091581674,0.3418689576603751,0.2883069150514387,0.31650178253805633,0.3234665662576637,0.48627450980392156,0.4980392156862745,0.49019607843137253,0.5137254901960784,0.5137254901960784,0.5019607843137255,0.5019607843137255,0.4980392156862745
266,18.998888969421387,0,0.2310311362741515,0.414744308009298,0.3993885584392293,0.34391877795586906,0.28756596209360225,0.3333597160906265,0.31586862391822523,0.5568627450980392,0.5137254901960784,0.4980392156862745,0.43529411764705883,0.4745098039215686,0.49019607843137253,0.5019607843137255,0.5098039215686274
267,19.026064038276672,0,0.2503474250163686,0.42002502311079504,0.3825041772184844,0.34872608643889264,0.2854285438039003,0.33937475782825116,0.2966363313584626,0.4823529411764706,0.4980392156862745,0.5098039215686274,0.4980392156862745,0.4745098039215686,0.5647058823529412,0.5058823529411764,0.5019607843137255
268,19.05627000331879,0,0.2520150167125026,0.3998054570747692,0.3886186895910612,0.3513677552404123,0.2841127957696602,0.3163434957196637,0.3036011166989643,0.4666666666666667,0.49019607843137253,0.5137254901960784,0.47058823529411764,0.5098039215686274,0.5019607843137255,0.49411764705882355,0.49411764705882355
269,19.057445049285892,0,0.24694275306329477,0.4014730487709033,0.41231240760288984,0.3538530077356373,0.28270888242818404,0.31824297968362897,0.3305896400374524,0.5450980392156862,0.5058823529411764,0.4980392156862745,0.615686274509804,0.5254901960784314,0.49019607843137253,0.49411764705882355,0.49411764705882355
270,19.085819005966187,0,0.25055587219961933,0.415786556732667,0.4100194643959139,0.355899046484576,0.28203526304319515,0.33454689802556425,0.3279778443190935,0.5215686274509804,0.5254901960784314,0.49019607843137253,0.47843137254901963,0.5490196078431373,0.49411764705882355,0.5019607843137255,0.5019607843137255
271,19.11572396755218,0,0.25979711793518795,0.4162034553682069,0.4043218549279154,0.3579089441518415,0.2815412727927127,0.3350217698270027,0.3214879356427134,0.48627450980392156,0.5058823529411764,0.5137254901960784,0.47058823529411764,0.4745098039215686,0.5019607843137255,0.4980392156862745,0.4980392156862745
272,19.11760306358337,0,0.26757921915787325,0.4176625998810902,0.3936214618334379,0.3596992657429568,0.28125419294980647,0.33668382032159033,0.3092995653490714,0.5137254901960784,0.49411764705882355,0.49019607843137253,0.5137254901960784,0.49019607843137253,0.4980392156862745,0.49411764705882355,0.5058823529411764
273,19.146156072616574,0,0.26716232052233335,0.42245692920925443,0.39445526195054326,0.361437075219305,0.2810251816475532,0.3421448403650027,0.3102493121937371,0.4980392156862745,0.49411764705882355,0.4980392156862745,0.5098039215686274,0.5176470588235295,0.4823529411764706,0.49411764705882355,0.49411764705882355
274,19.175534009933468,0,0.2563229659593852,0.4228738278447943,0.4012646001646397,0.3631483992817169,0.2806334973867536,0.34261971216644116,0.3180055445933569,0.5215686274509804,0.4588235294117647,0.49411764705882355,0.49019607843137253,0.49019607843137253,0.5098039215686274,0.49019607843137253,0.49411764705882355
275,19.177582025527954,0,0.24520568134443174,0.4192607087084697,0.41898278007947726,0.36501087174373464,0.2794630090428886,0.33850415925546484,0.3381875823768909,0.5019607843137255,0.5176470588235295,0.4980392156862745,0.5019607843137255,0.5254901960784314,0.49019607843137253,0.5098039215686274,0.5019607843137255
276,19.205850005149838,0,0.2324207936492419,0.4240550380366339,0.4301000675404563,0.36683998619970537,0.2777905832034659,0.34396517929887727,0.3508508196092883,0.5019607843137255,0.4980392156862745,0.49411764705882355,0.49411764705882355,0.5019607843137255,0.5098039215686274,0.5019607843137255,0.5019607843137255
277,19.23557198047638,0,0.23186493639125688,0.42030295173978754,0.4360756070604601,0.3686883957822059,0.2755577315161919,0.3396913347068252,0.35765730678513674,0.4549019607843137,0.5372549019607843,0.5058823529411764,0.4666666666666667,0.4823529411764706,0.5058823529411764,0.5019607843137255,0.49019607843137253
278,19.237411022186283,0,0.23610339850034656,0.41321568489669863,0.4332962823491898,0.3705076325079118,0.2729354405068148,0.33161852542863135,0.35449149423524867,0.5098039215686274,0.5058823529411764,0.5058823529411764,0.4980392156862745,0.49411764705882355,0.49019607843137253,0.4980392156862745,0.5019607843137255
279,19.266103982925415,0,0.24061979493047994,0.40105614871235057,0.4360756070604601,0.37224518264116147,0.27005515174124173,0.3177681062612961,0.35765730678513674,0.5215686274509804,0.4196078431372549,0.49019607843137253,0.5058823529411764,0.47843137254901963,0.49411764705882355,0.5058823529411764,0.5058823529411764
280,19.29588806629181,0,0.24193997512886695,0.3822262457434663,0.43732630154406704,0.37376067024630377,0.267364653496954,0.2963197512380999,0.35908192056855787,0.49411764705882355,0.5450980392156862,0.5137254901960784,0.5176470588235295,0.5019607843137255,0.5058823529411764,0.5019607843137255,0.5019607843137255
281,19.29876005649567,0,0.24583102431719686,0.36958032947783664,0.43934131185301206,0.3749284598010498,0.26531677503291023,0.2819153168601299,0.3613771345456596,0.5019607843137255,0.49411764705882355,0.49019607843137253,0.4980392156862745,0.5019607843137255,0.5137254901960784,0.5568627450980392,0.5019607843137255
282,19.326299071311947,0,0.2494441434535214,0.3686770521840279,0.4337131824077425,0.37566007478644514,0.2642679023933072,0.28088643146895087,0.3549663676575815,0.48627450980392156,0.4980392156862745,0.5058823529411764,0.4627450980392157,0.37254901960784315,0.47843137254901963,0.4666666666666667,0.49411764705882355
283,19.35693907737732,0,0.24993052495781584,0.37861312803015457,0.43600612561471835,0.37615565513430044,0.26380315145628846,0.2922041999480179,0.3575781633759404,0.49019607843137253,0.49019607843137253,0.4980392156862745,0.5098039215686274,0.5176470588235295,0.5098039215686274,0.5058823529411764,0.49411764705882355
284,19.358042001724247,0,0.2464563729820131,0.38695109220287605,0.43663146858748353,0.3765884177210112,0.2633176725221205,0.3017016262514216,0.3582904654049679,0.5019607843137255,0.4823529411764706,0.5137254901960784,0.5254901960784314,0.4823529411764706,0.5019607843137255,0.47843137254901963,0.5333333333333333
285,19.385769963264465,0,0.2472206859613256,0.385422466244251,0.4355892255561657,0.37699795937503827,0.2626459430999621,0.29996043234763775,0.35710328995360757,0.5058823529411764,0.4980392156862745,0.48627450980392156,0.4549019607843137,0.4627450980392157,0.4745098039215686,0.4823529411764706,0.4823529411764706
286,19.41572999954224,0,0.25076432222889566,0.36513341449344505,0.44378822683740365,0.37751494363299315,0.2613183041846549,0.2768500219671709,0.3664424294386186,0.5019607843137255,0.5019607843137255,0.4980392156862745,0.49411764705882355,0.5294117647058824,0.5098039215686274,0.49411764705882355,0.49019607843137253
287,19.417666077613827,0,0.2594497021684025,0.3539466455867243,0.45372429983750473,0.37795073080859043,0.2600520809568658,0.2641076413255771,0.3777601946758969,0.5058823529411764,0.5098039215686274,0.49411764705882355,0.5058823529411764,0.5333333333333333,0.5098039215686274,0.5019607843137255,0.49019607843137253
288,19.445850968360897,0,0.2725819999383266,0.3563785531081965,0.4571289717905785,0.3781816434199347,0.2594592939530023,0.266877725483223,0.3816383141174955,0.5215686274509804,0.5058823529411764,0.4980392156862745,0.5137254901960784,0.5568627450980392,0.5019607843137255,0.5019607843137255,0.49411764705882355
289,19.475645065307614,0,0.28328238734075295,0.3666620432980957,0.4583796648511727,0.3782426538838614,0.25948937126885313,0.2785912191127435,0.3830629262800223,0.5019607843137255,0.5019607843137255,0.49019607843137253,0.49411764705882355,0.5098039215686274,0.4980392156862745,0.4980392156862745,0.5058823529411764
290,19.477212071418762,0,0.28661757357904666,0.37882157663641813,0.4642857300404988,0.37820256916619654,0.2598948866212757,0.29244163503829,0.3897902781511463,0.47843137254901963,0.5019607843137255,0.49411764705882355,0.49019607843137253,0.4627450980392157,0.4980392156862745,0.49411764705882355,0.49411764705882355
291,19.505966067314148,0,0.2859922263372432,0.38854920387628117,0.46796833062256515,0.3781768455726121,0.26022980554049246,0.3035219684270849,0.393984974471319,0.4823529411764706,0.5176470588235295,0.5137254901960784,0.49411764705882355,0.49019607843137253,0.4980392156862745,0.4980392156862745,0.49411764705882355
292,19.535503029823307,0,0.2876598194563901,0.3888271325052737,0.4682462592515576,0.37824548234452965,0.2601826245472943,0.3038385453056589,0.394301551349893,0.5019607843137255,0.47843137254901963,0.5607843137254902,0.5019607843137255,0.5333333333333333,0.5019607843137255,0.5019607843137255,0.49411764705882355
293,19.537515044212338,0,0.29057810705914383,0.38973041833715916,0.460325186599312,0.3783212510516565,0.2601026431357109,0.30486744042220404,0.3852789887434559,0.5058823529411764,0.49411764705882355,0.5058823529411764,0.5019607843137255,0.4549019607843137,0.5019607843137255,0.4980392156862745,0.49411764705882355
294,19.56593906879425,0,0.29439967480173196,0.3913285243185131,0.4540022327355356,0.3783838499920616,0.260093545055636,0.30668777611428993,0.378076776417154,0.47058823529411764,0.5098039215686274,0.48627450980392156,0.48627450980392156,0.6,0.49411764705882355,0.49411764705882355,0.4980392156862745
295,19.59552299976349,0,0.29954141989668154,0.390911627105986,0.45025014786170203,0.37844294780063675,0.2601231620374869,0.3062129059337457,0.3738029334459963,0.49019607843137253,0.5058823529411764,0.47058823529411764,0.47058823529411764,0.5137254901960784,0.5019607843137255,0.5019607843137255,0.4980392156862745
296,19.597504019737247,0,0.302390225199886,0.390911627105986,0.44364925540784345,0.37846889021496055,0.2602805395341404,0.3062129059337457,0.3662841328948597,0.5098039215686274,0.5294117647058824,0.49411764705882355,0.5254901960784314,0.4980392156862745,0.49411764705882355,0.4980392156862745,0.4980392156862745
297,19.626257061958317,0,0.3078793857770184,0.38479711757943474,0.44059200491360623,0.3784850521526814,0.26048740455667446,0.29924812383503285,0.3628017467081864,0.49019607843137253,0.48627450980392156,0.47843137254901963,0.4745098039215686,0.4235294117647059,0.5019607843137255,0.5058823529411764,0.5098039215686274
298,19.65597498416901,0,0.3114925043441379,0.38076710265359587,0.4380906116773539,0.3784973223230301,0.2606957575602363,0.2946577023644067,0.35995251427866104,0.49411764705882355,0.5019607843137255,0.49019607843137253,0.49019607843137253,0.5058823529411764,0.5058823529411764,0.5019607843137255,0.4980392156862745
299,19.6579430103302,0,0.31878822420483005,0.3802112368575341,0.43503336118311675,0.37848514940634337,0.26098209503352293,0.2940245388818925,0.3564701280919877,0.47843137254901963,0.49411764705882355,0.4980392156862745,0.49019607843137253,0.5019607843137255,0.5019607843137255,0.48627450980392156,0.5058823529411764
300,19.6862610578537,0,0.32698722363615146,0.3789605423739271,0.4340605967515151,0.37845733485902716,0.2613189411961406,0.2925999250984713,0.355362092808035,0.47843137254901963,0.4745098039215686,0.4980392156862745,0.5019607843137255,0.4980392156862745,0.49411764705882355,0.49411764705882355,0.49019607843137253
301,19.71577203273773,0,0.3365064014159433,0.3784741594466199,0.432254039317872,0.37843356282225915,0.26161725221610704,0.2920459066460478,0.35330431878388835,0.5098039215686274,0.49411764705882355,0.4980392156862745,0.47058823529411764,0.3764705882352941,0.4980392156862745,0.4980392156862745,0.5058823529411764
302,19.718042969703678,0,0.3423429766214508,0.3790995081114362,0.43023903043193973,0.37840339797811257,0.2619040467816048,0.29275821515865275,0.3510091064276809,0.5019607843137255,0.5215686274509804,0.5490196078431373,0.5098039215686274,0.611764705882353,0.49411764705882355,0.5058823529411764,0.5019607843137255
303,19.74629306793213,0,0.34609506149528446,0.3810450341286139,0.42905781881708727,0.3783601606209062,0.26220980743207617,0.2949742824847695,0.34966363767435044,0.5098039215686274,0.5098039215686274,0.47843137254901963,0.5294117647058824,0.5764705882352941,0.49411764705882355,0.5019607843137255,0.5098039215686274
304,19.775853037834167,0,0.3422040108839418,0.3966092337279589,0.4344774968100678,0.3782451176432974,0.26273513119154296,0.3127028113683371,0.3558369662303678,0.47843137254901963,0.4745098039215686,0.49411764705882355,0.4980392156862745,0.5019607843137255,0.4980392156862745,0.4980392156862745,0.49411764705882355
305,19.778024077415463,0,0.3346998411362746,0.41224292188810974,0.436492505696,0.37811731498524137,0.26323993280744495,0.33051049176557296,0.3581321785865752,0.5098039215686274,0.49411764705882355,0.4823529411764706,0.5019607843137255,0.48627450980392156,0.5058823529411764,0.4980392156862745,0.49019607843137253
306,19.8063759803772,0,0.32955809604132497,0.41905226010220614,0.4384380302901649,0.3780427813996212,0.2634561860501455,0.33826672416519277,0.36034824429179757,0.5294117647058824,0.5098039215686274,0.4980392156862745,0.5137254901960784,0.6,0.5058823529411764,0.5019607843137255,0.49411764705882355
307,19.83581805229187,0,0.3263618762520467,0.42197055197399835,0.43621457279796916,0.3779992539023234,0.2634379882691012,0.3415908283961566,0.3578155968453181,0.5019607843137255,0.4745098039215686,0.48627450980392156,0.48627450980392156,0.4470588235294118,0.4980392156862745,0.5019607843137255,0.5019607843137255
308,19.838306069374088,0,0.323999452595438,0.41231240760288984,0.4357281912936747,0.37801453893619247,0.26305093328261014,0.3305896400374524,0.3572615800137889,0.5058823529411764,0.5098039215686274,0.5098039215686274,0.4980392156862745,0.47058823529411764,0.49019607843137253,0.4745098039215686,0.4980392156862745
309,19.865967988967896,0,0.3194830545999906,0.4000139056810328,0.43343525377875,0.3780009623249849,0.26261465011333696,0.31658093080993577,0.35464979077900743,0.5333333333333333,0.5019607843137255,0.48627450980392156,0.48627450980392156,0.49411764705882355,0.4980392156862745,0.4980392156862745,0.5098039215686274
310,19.895537972450253,0,0.31899667323799746,0.38966093262237905,0.42857143873580567,0.37786546528137466,0.2625066077784938,0.30478829215032466,0.3491096224637157,0.49411764705882355,0.4745098039215686,0.4980392156862745,0.49411764705882355,0.5137254901960784,0.5019607843137255,0.5098039215686274,0.5019607843137255
311,19.89717400074005,0,0.3148971735934874,0.38535298337549645,0.42620901408308803,0.37759006074058504,0.26280384090370695,0.29988128731754704,0.34641868333616044,0.5137254901960784,0.5176470588235295,0.4980392156862745,0.45098039215686275,0.4666666666666667,0.49411764705882355,0.47058823529411764,0.4980392156862745
312,19.925793051719662,0,0.3052390300761865,0.39202335585208387,0.4261395312143335,0.37717984965718493,0.26348527786222187,0.3074792296569855,0.3463395383060697,0.4588235294117647,0.4745098039215686,0.4980392156862745,0.5058823529411764,0.5058823529411764,0.5215686274509804,0.5843137254901961,0.4980392156862745
313,19.95579302310944,0,0.29558088641658437,0.40661479244284005,0.43051696332997064,0.376814856663906,0.263891190333764,0.3240997248774948,0.35132568816893806,0.5372549019607843,0.47843137254901963,0.5019607843137255,0.49411764705882355,0.5058823529411764,0.49019607843137253,0.4666666666666667,0.49019607843137253
314,19.957311034202572,0,0.2881462009606845,0.40453030638020454,0.4344774968100678,0.3766148220902292,0.2636360534561236,0.3217253739747742,0.3558369662303678,0.5019607843137255,0.5098039215686274,0.49411764705882355,0.47058823529411764,0.5019607843137255,0.4980392156862745,0.4980392156862745,0.5058823529411764
315,19.9856960773468,0,0.28515843048917616,0.397234583815788,0.43517232549761303,0.37654664241052277,0.2628718763238148,0.3134151215018364,0.35662841653127475,0.4588235294117647,0.5372549019607843,0.5058823529411764,0.4745098039215686,0.4588235294117647,0.5058823529411764,0.5176470588235295,0.5098039215686274
316,20.015724062919613,0,0.2826570400989495,0.38201779713720274,0.4374652687045889,0.3765686979201575,0.26177430391299294,0.2960823161478278,0.3592402122496336,0.4588235294117647,0.5058823529411764,0.4980392156862745,0.5058823529411764,0.49411764705882355,0.4823529411764706,0.5176470588235295,0.48627450980392156
317,20.017583966255188,0,0.27959978675868663,0.37868261089890903,0.43920234042345185,0.3764654291192214,0.26116232551983903,0.2922833449781086,0.36121883800190074,0.4627450980392157,0.49411764705882355,0.4823529411764706,0.49019607843137253,0.48627450980392156,0.4980392156862745,0.47058823529411764,0.4980392156862745
318,20.046061992645267,0,0.276542531995411,0.38000278825127054,0.4372568186753125,0.3762510544930908,0.26099244768583696,0.29378710379162043,0.35900277553846716,0.5490196078431373,0.48627450980392156,0.4980392156862745,0.5176470588235295,0.5058823529411764,0.49019607843137253,0.4980392156862745,0.4980392156862745
319,20.075893998146054,0,0.2745970059782333,0.3827821101165153,0.4365619885647546,0.37596915502857753,0.26109266110089363,0.2969529130997198,0.35821132361666597,0.48627450980392156,0.49411764705882355,0.4980392156862745,0.5019607843137255,0.5176470588235295,0.5019607843137255,0.48627450980392156,0.49411764705882355
320,20.077919006347656,0,0.2746664888469878,0.3860478134860545,0.4320455907116084,0.3756721990763009,0.2612707114842878,0.30067273923934834,0.3530668836936162,0.4666666666666667,0.4980392156862745,0.5058823529411764,0.5137254901960784,0.4980392156862745,0.5176470588235295,0.5098039215686274,0.5058823529411764
321,20.106284976005554,0,0.2717481998212212,0.3888966182200537,0.4351028440518712,0.37541573306528064,0.2612412306575636,0.30391769357753834,0.35654927312207835,0.5568627450980392,0.48627450980392156,0.5058823529411764,0.5176470588235295,0.5176470588235295,0.49411764705882355,0.44313725490196076,0.4980392156862745
322,20.135892033576965,0,0.27084492252741244,0.39000834696615166,0.43600612561471835,0.3751921306875258,0.261071510050315,0.3051840173007781,0.3575781633759404,0.5176470588235295,0.5215686274509804,0.5019607843137255,0.47058823529411764,0.48627450980392156,0.4823529411764706,0.4980392156862745,0.4980392156862745
323,20.138066053390503,0,0.27216509987977394,0.3834074573583187,0.43169817494482304,0.3750258269256002,0.2606762533383333,0.2976652199914303,0.35267115692226847,0.5019607843137255,0.5019607843137255,0.49019607843137253,0.5098039215686274,0.5137254901960784,0.5019607843137255,0.5137254901960784,0.5019607843137255
324,20.16624796390533,0,0.26459144726335215,0.3813924484723865,0.4396192404820046,0.3748589315372311,0.2602709454603895,0.2953700076352229,0.36169371142423373,0.49019607843137253,0.5098039215686274,0.5019607843137255,0.5137254901960784,0.49411764705882355,0.49411764705882355,0.43137254901960786,0.5019607843137255
325,20.195558071136478,0,0.258546423451581,0.3864647121215944,0.43968872619678473,0.37455020789185905,0.2604089419231117,0.3011476110407868,0.3617728596961131,0.49019607843137253,0.48627450980392156,0.5019607843137255,0.48627450980392156,0.48627450980392156,0.5058823529411764,0.4980392156862745,0.5058823529411764
326,20.197383999824524,0,0.24471929557109892,0.4250972853369901,0.4822818328922776,0.3740316999932003,0.2614492886583509,0.3451523596129207,0.41028888632967675,0.44313725490196076,0.5019607843137255,0.5019607843137255,0.43529411764705883,0.49411764705882355,0.5137254901960784,0.5333333333333333,0.49019607843137253
327,20.225829005241394,0,0.24666482158827666,0.4388549260796793,0.46963591662664794,0.3737460821970121,0.26206042580732897,0.3608231128514474,0.3958844519517067,0.5843137254901961,0.5176470588235295,0.4980392156862745,0.611764705882353,0.5294117647058824,0.4745098039215686,0.5333333333333333,0.5176470588235295
328,20.25552701950073,0,0.2698721595188236,0.41509172662210897,0.4482351418217953,0.3738183254588934,0.2616654786861711,0.333755446103763,0.3715077243315775,0.49019607843137253,0.47058823529411764,0.4980392156862745,0.47843137254901963,0.48627450980392156,0.5137254901960784,0.49019607843137253,0.49411764705882355
329,20.25739300251007,0,0.28119789558606617,0.3805586526243195,0.43419956818107536,0.3739937159546334,0.26087330384548274,0.29442026565324025,0.35552038935179386,0.47058823529411764,0.5019607843137255,0.4980392156862745,0.4588235294117647,0.49019607843137253,0.5019607843137255,0.5254901960784314,0.49411764705882355
330,20.285879015922546,0,0.2931489803181251,0.36951084803209494,0.42877988734206923,0.3740897199070222,0.2603309396235489,0.28183617345093354,0.34934705755398776,0.49411764705882355,0.5019607843137255,0.5019607843137255,0.5058823529411764,0.5098039215686274,0.5137254901960784,0.5058823529411764,0.5019607843137255
331,20.31558907032013,0,0.294538640539241,0.3696498151926168,0.4264869469811189,0.3740948014108588,0.25995376560911143,0.28199446513200926,0.34673526507741753,0.5058823529411764,0.48627450980392156,0.49411764705882355,0.5098039215686274,0.5098039215686274,0.49411764705882355,0.47843137254901963,0.4980392156862745
332,20.317039012908932,0,0.2878682680626536,0.3779877793653383,0.4284324715752838,0.3740014703132791,0.2597375123664109,0.291491891435413,0.3489513307826399,0.5098039215686274,0.5215686274509804,0.5019607843137255,0.5098039215686274,0.4980392156862745,0.48627450980392156,0.5137254901960784,0.5058823529411764
333,20.345957040786747,0,0.27848805801258875,0.3884102367157593,0.43489439686862047,0.373849926415448,0.2595289583719478,0.30336367674600917,0.35631183965270063,0.49411764705882355,0.4980392156862745,0.49411764705882355,0.4549019607843137,0.47843137254901963,0.4823529411764706,0.43529411764705883,0.5019607843137255
334,20.375984072685238,0,0.2701500909938417,0.4038354734236209,0.4446915041312125,0.3736345565601768,0.25933165338438285,0.3209339188111842,0.3674713148297976,0.47843137254901963,0.5019607843137255,0.5019607843137255,0.49411764705882355,0.5058823529411764,0.5058823529411764,0.5137254901960784,0.5019607843137255
335,20.37724506855011,0,0.2658421417469591,0.40730962539942367,0.4537937855522848,0.37352224478957424,0.25868770933344204,0.3248911800410848,0.37783934294777627,0.48627450980392156,0.49411764705882355,0.49019607843137253,0.49411764705882355,0.4627450980392157,0.48627450980392156,0.4823529411764706,0.49411764705882355
336,20.406398057937626,0,0.2623679897711564,0.4069622067866127,0.4539327498667811,0.3734728853143486,0.2577874208385583,0.3244954500279483,0.3779976313870633,0.4980392156862745,0.4980392156862745,0.5019607843137255,0.5215686274509804,0.5176470588235295,0.49019607843137253,0.5019607843137255,0.49411764705882355
337,20.435783028602604,0,0.2643829986570886,0.39799889679510053,0.44510840276675234,0.37343779619311884,0.25676942299483413,0.3142857184537284,0.36794618663123607,0.49411764705882355,0.5098039215686274,0.5058823529411764,0.5019607843137255,0.5058823529411764,0.5019607843137255,0.5098039215686274,0.48627450980392156
338,20.438148021698,0,0.26695387049305697,0.39139800434124206,0.4362840542437109,0.37336410871435766,0.2557988265859418,0.30676691790259186,0.3578947402545145,0.5019607843137255,0.48627450980392156,0.4980392156862745,0.4980392156862745,0.5176470588235295,0.5098039215686274,0.5176470588235295,0.49411764705882355
339,20.466346979141235,0,0.26612007464498993,0.38590884632553263,0.4326709393764247,0.3732529850593251,0.2548287537259296,0.30051444755827256,0.3537791922062212,0.49019607843137253,0.49019607843137253,0.4980392156862745,0.5058823529411764,0.5098039215686274,0.49411764705882355,0.4117647058823529,0.5058823529411764
340,20.495593070983887,0,0.2647998987156413,0.38563091485051454,0.43378266812252253,0.3730854704893083,0.2539879569169519,0.30019786743790977,0.3550455159294609,0.49019607843137253,0.4980392156862745,0.5019607843137255,0.4823529411764706,0.5019607843137255,0.5019607843137255,0.5098039215686274,0.49411764705882355
341,20.52588796615601,0,0.26167315966059834,0.39674820515751924,0.4360756070604601,0.3728492494489162,0.2533352454483868,0.312861107912096,0.35765730678513674,0.5019607843137255,0.5058823529411764,0.49019607843137253,0.5215686274509804,0.5058823529411764,0.5019607843137255,0.5019607843137255,0.4980392156862745
342,20.52839803695679,0,0.26007504941020604,0.39848527687638213,0.43948027616750834,0.37261951198598703,0.25264224827125537,0.3148397336643632,0.3615354229849467,0.5254901960784314,0.5058823529411764,0.5019607843137255,0.5058823529411764,0.5058823529411764,0.5137254901960784,0.592156862745098,0.5058823529411764
343,20.555862069129947,0,0.2714702711922287,0.38236521148097535,0.43864648316546695,0.37251319104096026,0.25159404506102545,0.29647804129828126,0.3605856842447528,0.49019607843137253,0.49411764705882355,0.4980392156862745,0.4823529411764706,0.5019607843137255,0.5058823529411764,0.4980392156862745,0.5019607843137255
344,20.557577967643734,0,0.28376876884504737,0.36916343226530957,0.4398276919342937,0.37247652641040707,0.2505458856149434,0.28144044667958573,0.3619311497562944,0.5058823529411764,0.49411764705882355,0.5019607843137255,0.5019607843137255,0.5019607843137255,0.5137254901960784,0.5137254901960784,0.49411764705882355
345,20.585754990577694,0,0.28439411608685083,0.3637437571183547,0.4384380302901649,0.37241646254878985,0.24978393721238748,0.2752671213653571,0.36034824429179757,0.5176470588235295,0.5019607843137255,0.49019607843137253,0.5137254901960784,0.5137254901960784,0.5019607843137255,0.4980392156862745,0.4980392156862745
346,20.615822076797485,0,0.2810589298485571,0.3649944501789488,0.4401056262553374,0.3723185556664157,0.24932901375790825,0.27669173352788384,0.36224773311844594,0.5137254901960784,0.5019607843137255,0.5058823529411764,0.49411764705882355,0.49019607843137253,0.5019607843137255,0.5058823529411764,0.5098039215686274
347,20.617580056190487,0,0.2757087347243312,0.37034464388016197,0.4414952836304278,0.37216671514491567,0.24914040486861555,0.28278591543291615,0.3638306337202597,0.5058823529411764,0.5058823529411764,0.5019607843137255,0.5019607843137255,0.5098039215686274,0.5058823529411764,0.5137254901960784,0.5019607843137255
348,20.64631807804108,0,0.26882991364148023,0.37757088215281115,0.44302391243507844,0.3719891542716199,0.2489228403223732,0.29101702125486884,0.36557183086583234,0.5254901960784314,0.5058823529411764,0.5019607843137255,0.5137254901960784,0.5215686274509804,0.49019607843137253,0.4549019607843137,0.49411764705882355
349,20.680181026458737,0,0.25555865155705987,0.3891745468490463,0.43954975903626287,0.37174030646411865,0.24871480501410703,0.3042342704561124,0.36161456801503733,0.49411764705882355,0.5019607843137255,0.4980392156862745,0.49019607843137253,0.48627450980392156,0.49411764705882355,0.5098039215686274,0.5019607843137255
350,20.708523988723755,0,0.2381184088092916,0.38854920387628117,0.4398276919342937,0.3714401897678288,0.24818172203331146,0.3035219684270849,0.3619311497562944,0.48627450980392156,0.5019607843137255,0.49411764705882355,0.47843137254901963,0.49411764705882355,0.49019607843137253,0.48627450980392156,0.49411764705882355
351,20.735915064811707,0,0.2335325223953398,0.3826431458020191,0.44253752666174556,0.3711643119258842,0.24734912857071883,0.29679462466043277,0.36501780917161997,0.5098039215686274,0.5058823529411764,0.4980392156862745,0.49019607843137253,0.5137254901960784,0.4980392156862745,0.5019607843137255,0.4980392156862745
352,20.73845398426056,0,0.24131462361802514,0.3750694917625845,0.4396192404820046,0.3709300651348296,0.24633064283779052,0.2881677920671322,0.36169371142423373,0.48627450980392156,0.5019607843137255,0.5019607843137255,0.4823529411764706,0.5019607843137255,0.5137254901960784,0.5254901960784314,0.4980392156862745
353,20.740146994590763,0,0.24881879621171796,0.3649249673101943,0.43579767416242926,0.3707334230930603,0.24522275991790818,0.2766125884977932,0.35734072504387965,0.4823529411764706,0.49019607843137253,0.49411764705882355,0.4980392156862745,0.49019607843137253,0.49019607843137253,0.5019607843137255,0.4980392156862745
354,20.766192078590397,0,0.24986104208906135,0.3597137393464902,0.43593663989993825,0.3705423682741697,0.24425271623399458,0.27067669665294225,0.357499015104061,0.4666666666666667,0.4980392156862745,0.5019607843137255,0.4549019607843137,0.4745098039215686,0.4980392156862745,0.47843137254901963,0.5019607843137255
355,20.795649051666263,0,0.25187605097499355,0.3653418659457342,0.43829906455265594,0.37034834721858984,0.2435211693261626,0.27708746029923165,0.36018995423161626,0.5019607843137255,0.49411764705882355,0.4980392156862745,0.5019607843137255,0.5058823529411764,0.4980392156862745,0.5019607843137255,0.5019607843137255
356,20.79717600345612,0,0.2608393638125313,0.3761117376399279,0.43948027616750834,0.37015737344441757,0.24314477496191503,0.2893549707602813,0.3615354229849467,0.5137254901960784,0.49019607843137253,0.49411764705882355,0.5176470588235295,0.4823529411764706,0.5058823529411764,0.5176470588235295,0.5019607843137255
357,20.82580697536468,0,0.26827404926843124,0.3836853888333368,0.436492505696,0.36999855821446165,0.24298640547790976,0.2979818001117931,0.3581321785865752,0.47058823529411764,0.5019607843137255,0.4980392156862745,0.3764705882352941,0.48627450980392156,0.5019607843137255,0.49411764705882355,0.5058823529411764
358,20.85571300983429,0,0.2541689913359439,0.38333797448956425,0.44059200491360623,0.3697777275660723,0.24280928224609277,0.29758607496133965,0.3628017467081864,0.5372549019607843,0.5019607843137255,0.4980392156862745,0.592156862745098,0.5215686274509804,0.5058823529411764,0.5098039215686274,0.5019607843137255
359,20.857578039169308,0,0.26431351578833406,0.3813924484723865,0.4362840542437109,0.3696164388513143,0.24270991817968374,0.2953700076352229,0.3578947402545145,0.49411764705882355,0.5098039215686274,0.5019607843137255,0.48627450980392156,0.49411764705882355,0.4745098039215686,0.43137254901960786,0.4980392156862745
360,20.88574707508087,0,0.2562534830906307,0.3765981191442223,0.4351028440518712,0.36943473983470276,0.2425313215548883,0.2899089875918105,0.35654927312207835,0.48627450980392156,0.4823529411764706,0.49411764705882355,0.49411764705882355,0.5019607843137255,0.5019607843137255,0.5019607843137255,0.4980392156862745
361,20.915592074394226,0,0.2542384742046984,0.37270706853287966,0.4337131824077425,0.36929735931183955,0.24229403558689788,0.2854768545604714,0.3549663676575815,0.5137254901960784,0.5137254901960784,0.5019607843137255,0.5176470588235295,0.5019607843137255,0.5058823529411764,0.5058823529411764,0.4980392156862745
362,20.917706966400143,0,0.25319622832735506,0.3721512041598307,0.43482491115384037,0.3691636517356091,0.24205725695884392,0.2848436926988515,0.35623269138082125,0.49411764705882355,0.49019607843137253,0.49411764705882355,0.4745098039215686,0.4745098039215686,0.5098039215686274,0.5254901960784314,0.49411764705882355
363,20.94714796543121,0,0.25208449958125717,0.37055309390943836,0.4367704400170437,0.3690317676655401,0.24182924899020306,0.2830233521440826,0.35844876194872666,0.4823529411764706,0.5098039215686274,0.4980392156862745,0.4980392156862745,0.4980392156862745,0.5058823529411764,0.5215686274509804,0.5098039215686274
364,20.97594797611237,0,0.25312674545860053,0.3721512041598307,0.43836854742141046,0.36888764584300976,0.24166029506598943,0.2848436926988515,0.3602690992617069,0.5098039215686274,0.49411764705882355,0.5019607843137255,0.5098039215686274,0.5019607843137255,0.49411764705882355,0.5176470588235295,0.4980392156862745
365,20.978523015975952,0,0.2520150167125026,0.3751389732083262,0.4370483686460362,0.3686963089884995,0.24158203504422243,0.28824693547632857,0.3587653388273007,0.5019607843137255,0.4745098039215686,0.4980392156862745,0.49019607843137253,0.5058823529411764,0.5098039215686274,0.49019607843137253,0.4980392156862745
366,21.00656998157501,0,0.25270984682306064,0.37618122050868236,0.43586715418515815,0.36847859045729237,0.24141383418753112,0.289434115790372,0.3574198668321815,0.5137254901960784,0.5803921568627451,0.5019607843137255,0.5019607843137255,0.5019607843137255,0.4745098039215686,0.47058823529411764,0.49411764705882355
367,21.03562903404236,0,0.253057262589846,0.3732629329059286,0.4387854460569504,0.3682728081921946,0.24112717966730654,0.2861100164220913,0.36074397106314543,0.5019607843137255,0.4627450980392157,0.49411764705882355,0.5019607843137255,0.48627450980392156,0.49019607843137253,0.4980392156862745,0.4980392156862745
368,21.0378760099411,0,0.253752092700404,0.3725681013723578,0.4394107932987538,0.36808225585055737,0.24084981546522868,0.2853185628793956,0.36145627795485596,0.5098039215686274,0.49019607843137253,0.4980392156862745,0.5019607843137255,0.5098039215686274,0.5137254901960784,0.5294117647058824,0.4980392156862745
369,21.06669199466705,0,0.25333519406486404,0.3734018986434376,0.43871596318819583,0.3678842101142674,0.24065192047211467,0.28626830648227264,0.3606648260330547,0.5058823529411764,0.4980392156862745,0.4980392156862745,0.5019607843137255,0.5137254901960784,0.5019607843137255,0.5058823529411764,0.5019607843137255
370,21.095636963844303,0,0.2527793296918151,0.37618122050868236,0.4365619885647546,0.3676720399044742,0.2405524121461071,0.289434115790372,0.35821132361666597,0.5058823529411764,0.47843137254901963,0.4980392156862745,0.5058823529411764,0.5137254901960784,0.4980392156862745,0.4823529411764706,0.5019607843137255
371,21.09785604476929,0,0.25055587219961933,0.3790995081114362,0.4355892255561657,0.36745091749509895,0.24051367277076574,0.29275821515865275,0.35710328995360757,0.4980392156862745,0.5058823529411764,0.5019607843137255,0.5098039215686274,0.5019607843137255,0.5058823529411764,0.4588235294117647,0.5019607843137255
372,21.126679062843326,0,0.2464563729820131,0.37819623081762743,0.43343525377875,0.3672102098191025,0.24042420750624832,0.2917293297674738,0.35464979077900743,0.4823529411764706,0.5176470588235295,0.49411764705882355,0.4549019607843137,0.47843137254901963,0.4980392156862745,0.5176470588235295,0.4980392156862745
373,21.155870079994198,0,0.24249583807890313,0.3788910595051726,0.4340605967515151,0.36697333717917535,0.24025608996352746,0.29252078006838067,0.355362092808035,0.49411764705882355,0.4745098039215686,0.5058823529411764,0.49411764705882355,0.49411764705882355,0.5137254901960784,0.5294117647058824,0.4980392156862745
374,21.157788038253784,0,0.24409395259833383,0.3759032876106515,0.43260145366164454,0.3667685922864717,0.24003881555737655,0.2891175340491149,0.35370004393434173,0.4823529411764706,0.5019607843137255,0.49411764705882355,0.4823529411764706,0.4823529411764706,0.49411764705882355,0.47843137254901963,0.4980392156862745
375,21.245972037315372,0,0.23929961900113125,0.37152585834104,0.4330183537201973,0.3665907672073943,0.2397321391015885,0.2841313874280353,0.35417491735667467,0.5137254901960784,0.4980392156862745,0.5019607843137255,0.5019607843137255,0.5137254901960784,0.48627450980392156,0.49019607843137253,0.5058823529411764
376,21.24755799770355,0,0.24006393198044376,0.3677737720441936,0.4317676578135775,0.36646087521650084,0.23943516694036818,0.27985754283598324,0.3527503019523591,0.4823529411764706,0.5098039215686274,0.4980392156862745,0.4980392156862745,0.49019607843137253,0.5176470588235295,0.5764705882352941,0.49411764705882355
377,21.275964975357056,0,0.23874375178205667,0.3652029002082252,0.4315592106303268,0.36620997697762686,0.23905877679044596,0.27692917023905034,0.35251286848298147,0.5176470588235295,0.4980392156862745,0.4980392156862745,0.5294117647058824,0.48627450980392156,0.5098039215686274,0.5254901960784314,0.5019607843137255
378,21.27860999107361,0,0.23735409440696634,0.3669399747731138,0.4332962823491898,0.36617360410805944,0.23915810098285362,0.27890779923310627,0.35449149423524867,0.5098039215686274,0.5137254901960784,0.4980392156862745,0.5215686274509804,0.5019607843137255,0.4980392156862745,0.47843137254901963,0.49411764705882355
379,21.306403994560238,0,0.23638133139837744,0.36916343226530957,0.43489439686862047,0.36615394265940293,0.23941535150674692,0.28144044667958573,0.35631183965270063,0.4980392156862745,0.5019607843137255,0.4980392156862745,0.5215686274509804,0.5098039215686274,0.5333333333333333,0.596078431372549,0.5019607843137255
380,21.33555805683136,0,0.23797943737973143,0.3711784411512418,0.4341300824662952,0.3661457198622855,0.23985088744371746,0.2837356590357931,0.35544124107991437,0.49411764705882355,0.49019607843137253,0.5019607843137255,0.49411764705882355,0.4980392156862745,0.49411764705882355,0.4823529411764706,0.4980392156862745
