time,gesture,ax,ay,az,qw,qx,qy,qz,e0,e1,e2,e3,e4,e5,e6,e7
9.37365198135376,false,-0.06201172,0.6279297,0.81591797,0.8229801,0.26728693,0.6279297,0.81591797,1,0,0,-1,-2,1,1,0
9.375115036964417,false,-0.06591797,0.63134766,0.81640625,0.8229935,0.26723027,0.63134766,0.81640625,-2,-2,-2,-4,2,1,-2,-3
9.376687049865723,false,-0.068359375,0.63183594,0.81640625,0.82301325,0.26721686,0.63183594,0.81640625,-2,-1,0,-1,-1,-3,1,2
9.383915066719055,false,-0.06738281,0.62939453,0.81933594,0.8230267,0.26716018,0.62939453,0.81933594,5,-2,0,-2,2,-2,-1,0
9.386005997657776,false,-0.06738281,0.6279297,0.8154297,0.8230267,0.26716018,0.6279297,0.8154297,-1,1,-1,-2,-2,1,-1,0
9.413449048995972,false,-0.067871094,0.62890625,0.81884766,0.8230362,0.26716328,0.62890625,0.81884766,0,0,-2,-1,1,0,-1,-2
9.442965030670166,false,-0.0703125,0.63183594,0.8105469,0.82304955,0.26710656,0.63183594,0.8105469,-5,0,-2,-8,-3,-1,0,0
9.44539201259613,false,-0.06640625,0.6298828,0.8178711,0.82304955,0.26710656,0.6298828,0.8178711,-4,0,-2,-6,-1,0,-2,0
9.47347104549408,false,-0.067871094,0.6323242,0.8198242,0.82304955,0.26710656,0.6323242,0.8198242,-7,-3,-2,-2,-1,-3,1,1
9.502812027931213,false,-0.06640625,0.6298828,0.81591797,0.82304996,0.26716772,0.6298828,0.81591797,-4,0,0,0,-1,-3,1,0
9.505475044250488,false,-0.064453125,0.6347656,0.8095703,0.82304996,0.26716772,0.6347656,0.8095703,-2,1,0,-2,1,1,-2,-3
9.533728003501892,false,-0.06298828,0.6376953,0.81640625,0.82304996,0.26716772,0.6376953,0.81640625,2,-2,1,0,2,1,-1,0
9.562971949577332,false,-0.0625,0.6269531,0.8144531,0.82304955,0.26710656,0.6269531,0.8144531,7,-3,-3,3,1,2,-1,-2
9.565556049346924,false,-0.06689453,0.6279297,0.81396484,0.82304955,0.26710656,0.6279297,0.81396484,2,0,-2,-1,3,-2,0,-2
9.593600034713745,false,-0.0703125,0.6269531,0.81640625,0.8230693,0.26709315,0.6269531,0.81640625,2,-1,-1,0,-3,-1,0,0
9.622890949249268,false,-0.06738281,0.62841797,0.81396484,0.82308275,0.26703647,0.62841797,0.81396484,6,0,0,4,7,0,-2,-3
9.62544596195221,false,-0.06689453,0.6381836,0.80810547,0.82308275,0.26703647,0.6381836,0.80810547,-1,-1,1,-3,2,-1,-1,0
9.653820037841797,false,-0.068847656,0.6386719,0.8095703,0.82309645,0.26704094,0.6386719,0.8095703,-3,2,0,0,5,-2,-1,-1
9.68377697467804,false,-0.064941406,0.6386719,0.8154297,0.82308275,0.26703647,0.6386719,0.8154297,5,-1,0,7,4,0,1,3
9.685948014259338,false,-0.06347656,0.63134766,0.8173828,0.82308275,0.26703647,0.63134766,0.8173828,-4,1,-1,-5,-2,1,-2,-2
9.714200973510742,false,-0.06542969,0.6298828,0.8129883,0.82308275,0.26703647,0.6298828,0.8129883,-4,-1,0,-4,0,0,0,-1
9.743806958198547,false,-0.06640625,0.6298828,0.8183594,0.82308275,0.26703647,0.6298828,0.8183594,-2,0,-2,-5,2,-2,-1,-2
9.745929956436157,false,-0.06298828,0.6303711,0.81396484,0.82308275,0.26703647,0.6303711,0.81396484,2,-2,-1,-3,0,-3,-1,0
9.773848056793213,false,-0.063964844,0.63183594,0.8149414,0.8231056,0.26698285,0.63183594,0.8149414,-1,1,-4,-1,1,2,-1,-1
9.803189992904663,false,-0.06640625,0.6333008,0.8129883,0.8231056,0.26698285,0.6333008,0.8129883,4,-3,-1,1,5,0,0,0
9.806071996688843,false,-0.068359375,0.6298828,0.81689453,0.8231056,0.26698285,0.6298828,0.81689453,-7,0,-1,-7,-6,0,-1,-3
9.83368706703186,false,-0.06591797,0.6303711,0.8198242,0.8231056,0.26698285,0.6303711,0.8198242,-8,0,0,-9,-3,-3,0,1
9.862863063812256,false,-0.06640625,0.6298828,0.81591797,0.82311904,0.26692617,0.6298828,0.81591797,-9,0,-1,-6,-4,0,-2,-1
9.865450978279114,false,-0.06298828,0.62890625,0.8149414,0.82311904,0.26692617,0.62890625,0.8149414,-1,-1,1,-2,-3,1,-2,-1
9.893754959106445,false,-0.064941406,0.62841797,0.81640625,0.82314825,0.26691586,0.62841797,0.81640625,-1,0,-2,-2,-2,-2,0,-2
9.922930002212524,false,-0.057617188,0.63427734,0.8178711,0.82314825,0.26691586,0.63427734,0.8178711,3,1,-2,2,2,-1,-1,0
9.925260066986084,false,-0.06640625,0.6308594,0.8125,0.82314825,0.26691586,0.6308594,0.8125,0,-1,0,-3,-2,-1,0,-1
9.95361602306366,false,-0.063964844,0.6274414,0.81591797,0.8231616,0.26685917,0.6274414,0.81591797,4,-2,0,-2,-1,2,-1,-1
9.982962012290955,false,-0.068847656,0.6303711,0.8144531,0.82317114,0.26686224,0.6303711,0.8144531,-3,0,-2,-1,0,-4,-3,-1
9.98560905456543,false,-0.06591797,0.6333008,0.81347656,0.82317114,0.26686224,0.6333008,0.81347656,-5,-1,-1,-2,3,-1,-1,0
10.013970971107483,false,-0.06640625,0.63623047,0.81103516,0.82317114,0.26686224,0.63623047,0.81103516,2,-2,1,-2,-1,0,1,0
10.043936014175415,false,-0.06591797,0.6328125,0.8222656,0.82317114,0.26686224,0.6328125,0.8222656,5,1,-1,4,4,2,-1,-2
10.04664695262909,false,-0.064453125,0.63378906,0.8144531,0.82316124,0.266798,0.63378906,0.8144531,-2,-2,-1,-4,3,-2,1,0
10.073848009109497,false,-0.064941406,0.6323242,0.8203125,0.82316124,0.266798,0.6323242,0.8203125,4,0,0,-1,1,2,-2,-1
10.103492975234985,false,-0.06591797,0.6303711,0.8120117,0.82316124,0.266798,0.6303711,0.8120117,4,-2,-2,0,7,1,0,0
10.10633397102356,false,-0.06738281,0.6298828,0.8129883,0.82316124,0.266798,0.6298828,0.8129883,-2,1,0,-3,0,0,-1,-2
10.13346803188324,false,-0.06347656,0.63134766,0.81396484,0.82316124,0.266798,0.63134766,0.81396484,0,-3,1,1,5,1,0,-1
10.163197040557861,false,-0.06347656,0.63378906,0.8178711,0.8231707,0.2668011,0.63378906,0.8178711,3,-1,-1,-4,6,-1,-1,-1
10.165487051010132,false,-0.061035156,0.63378906,0.8149414,0.8231707,0.2668011,0.63378906,0.8149414,-4,0,-3,0,-1,-2,-3,0
10.193529963493347,false,-0.06591797,0.62939453,0.81591797,0.8231842,0.2667444,0.62939453,0.81591797,-4,2,0,-8,-6,-2,1,0
10.223451972007751,false,-0.06201172,0.63427734,0.8183594,0.8232038,0.26673096,0.63427734,0.8183594,-5,0,-1,-6,0,1,-2,-2
10.225573062896729,false,-0.0703125,0.6347656,0.81933594,0.8232038,0.26673096,0.6347656,0.81933594,-4,-4,0,3,2,-1,0,1
10.253638982772827,false,-0.06738281,0.6298828,0.8198242,0.8232038,0.26673096,0.6298828,0.8198242,-3,1,1,-5,-4,1,0,-2
10.283115029335022,false,-0.067871094,0.63183594,0.81152344,0.8232173,0.2666743,0.63183594,0.81152344,2,0,-1,-4,-1,-1,0,2
10.285577058792114,false,-0.0625,0.63183594,0.8173828,0.8232268,0.26667738,0.63183594,0.8173828,-1,0,0,0,-5,-4,-1,0
10.314013957977295,false,-0.0625,0.62158203,0.81884766,0.8232268,0.26667738,0.62158203,0.81884766,-1,0,0,0,-4,-2,-1,-1
10.34327495098114,false,-0.064453125,0.62939453,0.81884766,0.8232401,0.26662067,0.62939453,0.81884766,-4,-1,-3,-5,-5,-4,0,-1
10.345975041389465,false,-0.06591797,0.6333008,0.8154297,0.82324964,0.26662374,0.6333008,0.8154297,-6,-1,-1,-2,-1,-2,0,-1
10.374174952507019,false,-0.068847656,0.63427734,0.8232422,0.82324964,0.26662374,0.63427734,0.8232422,0,-2,-1,0,-4,-1,0,0
10.403607964515686,false,-0.06591797,0.6333008,0.81396484,0.82324964,0.26662374,0.6333008,0.81396484,-2,-1,1,-5,-4,0,-1,-2
10.40612804889679,false,-0.060546875,0.63671875,0.8144531,0.82324964,0.26662374,0.63671875,0.8144531,-2,-1,-1,-1,1,-1,-1,-3
10.434434056282043,false,-0.060058594,0.6376953,0.81347656,0.82324964,0.26662374,0.6376953,0.81347656,2,0,0,2,-1,-1,1,-3
10.463503956794739,false,-0.068359375,0.6308594,0.81103516,0.82324964,0.26662374,0.6308594,0.81103516,-2,0,0,-2,-2,3,-2,0
10.466271996498108,false,-0.067871094,0.62646484,0.8208008,0.8232263,0.2666162,0.62646484,0.8208008,1,-1,-2,3,3,1,-1,1
10.49437701702118,false,-0.0625,0.62597656,0.81347656,0.82325935,0.2665461,0.62597656,0.81347656,2,-3,-1,1,2,-4,0,0
10.523516058921814,false,-0.06542969,0.62841797,0.80566406,0.8232689,0.26654917,0.62841797,0.80566406,3,2,-1,1,1,0,-1,1
10.525954961776733,false,-0.063964844,0.6357422,0.81347656,0.8232689,0.26654917,0.6357422,0.81347656,0,1,-1,-4,0,-1,-2,0
10.554180979728699,false,-0.06689453,0.6347656,0.8154297,0.8232689,0.26654917,0.6347656,0.8154297,3,-2,-3,-4,0,-2,-2,-1
10.583490014076233,false,-0.06347656,0.6279297,0.8183594,0.8232689,0.26654917,0.6279297,0.8183594,-8,2,-1,-5,-1,0,1,-2
10.586411952972412,false,-0.06738281,0.6347656,0.8120117,0.8232689,0.26654917,0.6347656,0.8120117,-11,-4,-2,-4,0,-1,-1,-2
10.614289045333862,false,-0.06298828,0.6333008,0.81103516,0.8232689,0.26654917,0.6333008,0.81103516,-1,-3,-2,-1,-3,-1,-1,-2
10.64366602897644,false,-0.06201172,0.6308594,0.82177734,0.8232689,0.26654917,0.6308594,0.82177734,0,1,0,-2,-3,2,2,-3
10.64487099647522,false,-0.0625,0.62939453,0.81347656,0.8232784,0.26655224,0.62939453,0.81347656,-2,0,-1,-2,-3,0,-1,-1
10.672760963439941,false,-0.06298828,0.6328125,0.8183594,0.8232917,0.26649553,0.6328125,0.8183594,7,-2,0,3,4,-1,-1,0
10.702949047088623,false,-0.06347656,0.6328125,0.80908203,0.8232784,0.26655224,0.6328125,0.80908203,1,0,-1,0,-2,-1,-1,-1
10.7051500082016,false,-0.07128906,0.63183594,0.81396484,0.8232917,0.26649553,0.63183594,0.81396484,-4,0,-2,-2,-1,-2,0,0
10.73315703868866,false,-0.06542969,0.63183594,0.8129883,0.8232917,0.26649553,0.63183594,0.8129883,-2,-1,-1,-4,-1,0,-1,-1
10.763512969017029,false,-0.064941406,0.63134766,0.81640625,0.8232917,0.26649553,0.63134766,0.81640625,0,-2,0,-2,2,-1,-1,-3
10.765728950500488,false,-0.06591797,0.6303711,0.8208008,0.8232917,0.26649553,0.6303711,0.8208008,0,-1,-1,-4,-1,0,-2,1
10.792790055274963,false,-0.0625,0.63427734,0.8125,0.8232917,0.26649553,0.63427734,0.8125,3,-1,-1,-4,-4,-2,-1,-2
10.822957992553711,false,-0.064453125,0.63427734,0.8154297,0.8232917,0.26649553,0.63427734,0.8154297,-6,0,-1,-3,-1,0,-2,-3
10.82517695426941,false,-0.063964844,0.6333008,0.8129883,0.8232917,0.26649553,0.6333008,0.8129883,-5,-1,-1,0,1,0,0,-1
10.85274600982666,false,-0.068847656,0.62890625,0.8125,0.8233052,0.26643884,0.62890625,0.8125,1,0,-2,-2,1,0,1,2
10.88307499885559,false,-0.064453125,0.6308594,0.8178711,0.8233146,0.26644188,0.6308594,0.8178711,-1,0,-1,0,-1,-1,0,0
10.885236024856567,false,-0.06591797,0.63183594,0.8178711,0.8233146,0.26644188,0.63183594,0.8178711,-1,-1,-1,2,1,0,0,0
10.91294801235199,false,-0.068359375,0.62597656,0.81347656,0.82333434,0.26642853,0.62597656,0.81347656,4,0,-1,-3,-1,0,1,-1
10.943219065666199,false,-0.063964844,0.62939453,0.8125,0.82333434,0.26642853,0.62939453,0.8125,1,-2,-1,2,-1,-2,-3,-1
10.945175051689148,false,-0.06640625,0.6308594,0.8120117,0.8233477,0.26637182,0.6308594,0.8120117,-5,-2,-1,-4,0,0,-1,-1
10.97313404083252,false,-0.06982422,0.62890625,0.81640625,0.8233477,0.26637182,0.62890625,0.81640625,-1,-1,0,-3,0,0,0,-1
11.003322958946228,false,-0.064941406,0.63183594,0.81347656,0.8233477,0.26637182,0.63183594,0.81347656,-4,-1,-3,-4,-5,0,-2,0
11.006123065948486,false,-0.06542969,0.6308594,0.8125,0.8233477,0.26637182,0.6308594,0.8125,1,-3,0,1,2,0,1,6
11.032742023468018,false,-0.06591797,0.6333008,0.81396484,0.8233477,0.26637182,0.6333008,0.81396484,5,0,-3,0,0,-1,1,-2
11.063027024269104,false,-0.0703125,0.63183594,0.81591797,0.8233477,0.26637182,0.63183594,0.81591797,-1,2,0,1,-2,-1,-2,-3
11.065440058708191,false,-0.06298828,0.6323242,0.8105469,0.8233477,0.26637182,0.6323242,0.8105469,0,1,-1,-2,-3,-1,-1,-2
11.093505024909973,false,-0.06201172,0.6308594,0.81933594,0.8233611,0.2663151,0.6308594,0.81933594,1,-2,0,-1,2,-1,0,2
11.12303602695465,false,-0.06591797,0.63183594,0.8105469,0.8233611,0.2663151,0.63183594,0.8105469,5,-3,0,2,2,-2,-1,-3
11.125251054763794,false,-0.064453125,0.63427734,0.8120117,0.8233477,0.26637182,0.63427734,0.8120117,1,1,-2,-3,0,-1,0,-2
11.15290105342865,false,-0.06640625,0.63134766,0.81103516,0.8233611,0.2663151,0.63134766,0.81103516,-4,-4,0,-3,-1,1,-2,-2
11.182944059371948,false,-0.064453125,0.6303711,0.8129883,0.8233473,0.26631063,0.6303711,0.8129883,-4,0,0,1,-3,-3,0,2
11.185829043388367,false,-0.06347656,0.63671875,0.8154297,0.8233473,0.26631063,0.63671875,0.8154297,2,-1,-1,1,2,0,-3,-2
11.213106989860535,false,-0.06738281,0.6376953,0.8120117,0.82333386,0.26636732,0.6376953,0.8120117,-5,0,-2,-2,-2,-2,0,1
11.243250012397766,false,-0.067871094,0.6352539,0.8173828,0.8233473,0.26631063,0.6352539,0.8173828,2,-2,0,1,-1,-2,-2,-2
11.245552062988281,false,-0.0625,0.63183594,0.8129883,0.8233473,0.26631063,0.63183594,0.8129883,-2,3,2,0,1,-1,-1,-2
11.273105025291443,false,-0.06298828,0.6328125,0.8173828,0.8233473,0.26631063,0.6328125,0.8173828,1,-1,-2,-4,3,3,0,-1
11.303285956382751,false,-0.063964844,0.62890625,0.8222656,0.8233473,0.26631063,0.62890625,0.8222656,0,-2,-1,0,-1,0,0,-2
11.305474996566772,false,-0.07080078,0.6333008,0.81591797,0.8233473,0.26631063,0.6333008,0.81591797,0,-3,-2,-2,-4,0,0,-1
11.333042979240417,false,-0.071777344,0.6328125,0.81591797,0.8233606,0.26625392,0.6328125,0.81591797,-6,0,-1,-2,-4,-2,-2,-1
11.363425970077515,false,-0.06640625,0.63720703,0.8198242,0.8233606,0.26625392,0.63720703,0.8198242,-4,-4,-1,-8,-1,0,1,-1
11.365113019943237,false,-0.06201172,0.6357422,0.8120117,0.8233473,0.26631063,0.6357422,0.8120117,-1,0,-1,-7,0,1,0,-2
11.393404006958008,false,-0.060546875,0.6298828,0.8120117,0.8233473,0.26631063,0.6298828,0.8120117,-9,3,-1,-2,-5,-2,-2,1
11.423133969306946,false,-0.06689453,0.62646484,0.8120117,0.8233606,0.26625392,0.62646484,0.8120117,0,-1,-2,3,2,-1,-2,1
11.42517101764679,false,-0.06542969,0.6274414,0.8100586,0.82338023,0.26624054,0.6274414,0.8100586,-3,0,0,4,-2,-1,-1,0
11.45340895652771,false,-0.06298828,0.62890625,0.8149414,0.82338977,0.2662436,0.62890625,0.8149414,-2,-3,-1,-4,-2,-1,-1,-2
11.48310399055481,false,-0.06591797,0.6352539,0.8173828,0.82338977,0.2662436,0.6352539,0.8173828,1,0,2,-2,1,1,-1,0
11.486049056053162,false,-0.068359375,0.63427734,0.8066406,0.82338977,0.2662436,0.63427734,0.8066406,4,-2,-3,2,-1,2,-4,-1
11.513203978538513,false,-0.06738281,0.6376953,0.8105469,0.82338023,0.26624054,0.6376953,0.8105469,-3,-3,-2,-6,-2,-1,0,1
11.543207049369812,false,-0.06738281,0.6333008,0.81591797,0.82338023,0.26624054,0.6333008,0.81591797,2,0,0,-1,-3,-5,0,-3
11.545459985733032,false,-0.06347656,0.6308594,0.8144531,0.82338977,0.2662436,0.6308594,0.8144531,0,1,-1,2,0,-2,-1,-2
11.573170065879822,false,-0.064941406,0.6347656,0.8178711,0.82338977,0.2662436,0.6347656,0.8178711,6,4,0,4,-2,0,-2,0
11.603538036346436,false,-0.0625,0.6279297,0.8178711,0.82338977,0.2662436,0.6279297,0.8178711,1,-2,0,-1,0,0,0,-1
11.605281949043274,false,-0.064941406,0.6254883,0.8222656,0.8234031,0.2661869,0.6254883,0.8222656,1,-2,0,-1,1,-1,0,-2
11.632954955101013,false,-0.063964844,0.62939453,0.8149414,0.8234031,0.2661869,0.62939453,0.8149414,1,-4,-1,3,5,0,1,0
11.662937045097351,false,-0.063964844,0.63427734,0.8173828,0.82341266,0.26618996,0.63427734,0.8173828,0,2,1,1,1,-2,-1,3
11.665066957473755,false,-0.06542969,0.6303711,0.8198242,0.82341266,0.26618996,0.6303711,0.8198242,1,0,0,-1,-2,-2,0,-2
11.693068981170654,false,-0.071777344,0.6376953,0.82470703,0.823426,0.26613325,0.6376953,0.82470703,-2,-2,-1,-3,-2,-1,-1,-1
11.723165035247803,false,-0.071777344,0.6376953,0.8198242,0.8234166,0.26613018,0.6376953,0.8198242,0,-2,-2,-3,0,-1,-2,1
11.725340008735657,false,-0.0703125,0.6411133,0.81103516,0.8234166,0.26613018,0.6411133,0.81103516,-2,0,-1,0,0,2,-1,-1
11.752936959266663,false,-0.07373047,0.6196289,0.8071289,0.8234306,0.26607367,0.6196289,0.8071289,-2,-3,-2,-3,-3,-1,0,0
11.812648057937622,false,-0.06542969,0.6298828,0.80322266,0.8234306,0.26607367,0.6298828,0.80322266,0,-2,-1,1,2,-1,-2,-2
11.843695998191833,false,-0.056640625,0.64160156,0.8154297,0.8234306,0.26607367,0.64160156,0.8154297,1,-1,-1,2,4,0,-1,1
11.872751951217651,false,-0.06689453,0.62939453,0.80371094,0.82364225,0.265758,0.62939453,0.80371094,-2,1,-1,1,-2,-1,0,-3
11.903620958328247,false,-0.051757812,0.6171875,0.80126953,0.8237236,0.26539832,0.6171875,0.80126953,-2,0,0,-3,-5,1,-1,-2
11.90556800365448,false,-0.052734375,0.6196289,0.8105469,0.8238189,0.26496243,0.6196289,0.8105469,-1,-1,1,-3,1,-1,0,2
11.93276596069336,false,-0.057128906,0.62841797,0.8222656,0.8240247,0.26435933,0.62841797,0.8222656,-2,-1,-2,2,1,0,-2,0
11.962975978851318,false,-0.04248047,0.6376953,0.83740234,0.82414234,0.2638696,0.6376953,0.83740234,-1,-3,-2,-5,0,-3,0,1
11.965211033821106,false,-0.044433594,0.6455078,0.8486328,0.8241965,0.26362327,0.6455078,0.8486328,-3,-1,-2,-1,-1,-2,-1,0
11.992987036705017,false,-0.060546875,0.6333008,0.8364258,0.82409215,0.2636289,0.6333008,0.8364258,2,-3,1,-3,1,0,-1,0
12.023074984550476,false,-0.075683594,0.61328125,0.81396484,0.824054,0.26355568,0.61328125,0.81396484,5,-2,-2,1,1,-1,1,-2
12.02524995803833,false,-0.076171875,0.6010742,0.8027344,0.82414216,0.26307604,0.6010742,0.8027344,0,0,-1,-2,-2,-1,-1,-2
12.05299699306488,false,-0.07714844,0.59472656,0.82128906,0.824354,0.26221123,0.59472656,0.82128906,-5,0,-2,-2,1,2,-2,-1
12.08296000957489,false,-0.076660156,0.5986328,0.83496094,0.8246401,0.26137,0.5986328,0.83496094,-4,1,0,-4,-2,2,0,-2
12.085224986076355,false,-0.08251953,0.60253906,0.8354492,0.824797,0.2610565,0.60253906,0.8354492,-5,-1,0,-1,-3,-2,0,1
12.113461971282959,false,-0.088378906,0.6201172,0.8154297,0.824738,0.2616065,0.6201172,0.8154297,-7,-2,0,-5,-1,-1,-2,-2
12.143978953361511,false,-0.08105469,0.64697266,0.796875,0.8244529,0.26271155,0.64697266,0.796875,3,1,-1,-1,-4,-3,-1,-1
12.146443963050842,false,-0.0703125,0.6669922,0.8017578,0.8241447,0.26356518,0.6669922,0.8017578,1,-1,-2,2,-3,0,-2,-1
12.173995971679688,false,-0.068847656,0.6640625,0.8105469,0.8241314,0.26362196,0.6640625,0.8105469,1,0,-1,0,1,0,0,-3
12.203418970108032,false,-0.05908203,0.6425781,0.8129883,0.8240336,0.26338556,0.6425781,0.8129883,-1,-1,-2,-1,3,-1,-1,1
12.206225037574768,false,-0.060058594,0.62939453,0.81591797,0.8238757,0.26319098,0.62939453,0.81591797,4,-1,0,1,2,-3,1,0
12.234003067016602,false,-0.05810547,0.625,0.82470703,0.82375264,0.26282448,0.625,0.82470703,4,-1,-1,-1,0,1,-1,2
12.264026045799255,false,-0.06738281,0.6201172,0.8203125,0.82373893,0.26222917,0.6201172,0.8203125,2,0,-1,1,4,-1,0,1
12.266025066375732,false,-0.0703125,0.62060547,0.8203125,0.8238341,0.26154917,0.62060547,0.8203125,1,0,-1,-1,2,0,-2,1
12.2936190366745,false,-0.07080078,0.62060547,0.8276367,0.82396936,0.26106504,0.62060547,0.8276367,-1,-2,-1,-1,-3,-1,-3,-2
12.3230060338974,false,-0.083984375,0.62597656,0.8154297,0.8242147,0.26094332,0.62597656,0.8154297,-1,0,-2,-2,1,-2,1,-2
12.325312972068787,false,-0.08935547,0.6381836,0.80908203,0.8245521,0.2612394,0.6381836,0.80908203,3,-1,-2,-1,3,1,-3,0
12.353469014167786,false,-0.103515625,0.6435547,0.8051758,0.8250417,0.26166707,0.6435547,0.8051758,0,-2,1,2,-1,-1,0,-1
12.382918000221252,false,-0.09667969,0.65478516,0.78759766,0.8256082,0.26228288,0.65478516,0.78759766,-1,-1,-2,-2,2,1,0,-1
12.385619044303894,false,-0.096191406,0.6669922,0.7915039,0.8262726,0.2625248,0.6669922,0.7915039,-1,1,-1,-3,0,-1,-2,-2
12.413648962974548,false,-0.09277344,0.65234375,0.8149414,0.82710445,0.26221243,0.65234375,0.8149414,-1,0,-2,-1,-2,-1,-1,-2
12.443044066429138,false,-0.087402344,0.6376953,0.83203125,0.8280484,0.26161104,0.6376953,0.83203125,1,1,0,0,-3,-2,1,-1
12.445888042449951,false,-0.07763672,0.6230469,0.8442383,0.8289925,0.2612538,0.6230469,0.8442383,-6,0,2,-5,-2,0,-2,-2
12.473888039588928,false,-0.07324219,0.6040039,0.859375,0.8300138,0.2610045,0.6040039,0.859375,-9,-7,-15,-9,2,-1,1,2
12.503301978111267,false,-0.07910156,0.5708008,0.8666992,0.8311048,0.2611852,0.5708008,0.8666992,-4,-3,5,-26,-8,1,1,1
12.506023049354553,false,-0.08105469,0.57177734,0.8676758,0.83172095,0.2628961,0.57177734,0.8676758,-12,17,58,30,-6,-4,-7,-5
12.533748030662537,false,-0.05810547,0.5800781,0.86376953,0.8327889,0.2637409,0.5800781,0.86376953,1,6,22,19,-2,-6,0,4
12.563238978385925,false,-0.067871094,0.6074219,0.8520508,0.8336895,0.26526207,0.6074219,0.8520508,-1,-1,-10,8,2,3,0,-2
12.56566298007965,false,-0.041992188,0.6401367,0.87402344,0.8351777,0.2652695,0.6401367,0.87402344,2,2,0,3,-1,-3,-3,-1
12.593667030334473,false,-0.072753906,0.6230469,0.86328125,0.836729,0.2655827,0.6230469,0.86328125,4,-8,-28,-8,-2,0,0,-2
12.62319302558899,false,-0.053222656,0.6015625,0.8486328,0.8378225,0.26710704,0.6015625,0.8486328,0,-3,-14,-8,3,4,0,0
12.625728011131287,false,-0.049316406,0.6660156,0.8461914,0.83849144,0.27058545,0.6660156,0.8461914,1,-3,-12,-6,-2,-4,-3,-2
12.653571009635925,false,-0.08935547,0.72021484,0.81396484,0.83883274,0.27491105,0.72021484,0.81396484,-3,-5,-7,-12,-7,-1,1,0
12.68318796157837,false,-0.092285156,0.7290039,0.7963867,0.8394749,0.27846175,0.7290039,0.7963867,-3,1,7,5,-2,2,-1,-3
12.685742020606995,false,-0.047851562,0.64404297,0.76220703,0.8408188,0.28004912,0.64404297,0.76220703,3,-1,-5,-5,2,2,1,0
12.713778972625732,false,-0.009277344,0.60058594,0.77490234,0.84217495,0.2810912,0.60058594,0.77490234,-8,-3,-3,-14,-5,-1,-1,-1
12.743772983551025,false,-0.0053710938,0.58203125,0.796875,0.8432853,0.28205135,0.58203125,0.796875,8,-4,-6,-3,3,-3,2,-1
12.746328949928284,false,-0.03173828,0.5834961,0.8022461,0.8441883,0.28377667,0.5834961,0.8022461,2,1,-2,0,3,0,-2,-1
12.77387797832489,false,-0.045898438,0.59375,0.81347656,0.8451539,0.2859704,0.59375,0.81347656,0,-2,0,5,0,-5,-1,0
12.80343496799469,false,-0.068847656,0.5966797,0.79052734,0.84616256,0.28852415,0.5966797,0.79052734,3,4,17,-1,-2,6,-5,-2
12.806159019470215,false,-0.064453125,0.5805664,0.7529297,0.8472891,0.29115835,0.5805664,0.7529297,5,-3,-13,-3,7,3,1,-1
12.834123969078064,false,-0.052246094,0.6113281,0.78808594,0.84825236,0.29402256,0.6113281,0.78808594,-6,-1,-4,-1,8,-1,-1,0
12.863293051719666,false,-0.016601562,0.6274414,0.80615234,0.8492159,0.29688683,0.6274414,0.80615234,-12,-3,2,-1,-6,-1,1,0
12.865910053253174,false,0.020996094,0.6386719,0.83447266,0.8501051,0.29982886,0.6386719,0.83447266,1,-4,-11,-9,-15,-9,-4,-1
12.893646955490112,false,0.029785156,0.6225586,0.80810547,0.85088974,0.30348808,0.6225586,0.80810547,1,-4,-8,0,10,14,0,1
12.923089981079102,false,0.03125,0.64208984,0.8041992,0.8515257,0.30762595,0.64208984,0.8041992,-4,-1,-6,-2,-3,-9,-2,-1
12.925449967384338,false,0.06347656,0.640625,0.77441406,0.85191584,0.3124566,0.640625,0.77441406,-1,1,1,1,4,-3,1,0
12.953649997711182,false,0.07421875,0.6533203,0.78271484,0.8523844,0.31727132,0.6533203,0.78271484,1,2,2,7,-1,-1,-4,-3
12.983018040657043,false,0.100097656,0.6621094,0.7709961,0.8528784,0.32197335,0.6621094,0.7709961,2,-1,-2,0,4,3,1,0
12.985443949699402,false,0.11816406,0.66259766,0.77734375,0.8537594,0.32582882,0.66259766,0.77734375,2,-2,-9,-6,-2,-2,0,1
13.013574004173279,false,0.13427734,0.63916016,0.7529297,0.85496986,0.3289989,0.63916016,0.7529297,-4,-3,2,-3,-3,4,-3,-3
13.042845010757446,false,0.13232422,0.67578125,0.77685547,0.85607177,0.33192998,0.67578125,0.77685547,-6,0,9,1,-6,-5,-5,-4
13.04567003250122,false,0.14648438,0.6723633,0.7597656,0.8573107,0.33407345,0.6723633,0.7597656,4,-2,-11,-8,1,2,18,9
13.074002981185913,false,0.17138672,0.67578125,0.78271484,0.85874844,0.3351005,0.67578125,0.78271484,2,-1,6,-4,-4,-5,-1,-2
13.103559970855713,false,0.5419922,0.921875,0.68847656,0.85739374,0.34016198,0.921875,0.68847656,29,2,-2,38,99,29,-11,-4
13.106032013893127,false,0.20361328,0.56103516,0.8022461,0.85785383,0.3389542,0.56103516,0.8022461,-24,-32,-16,-44,-51,-65,4,-2
13.133839011192322,false,0.08544922,0.6142578,0.80810547,0.8590348,0.33814502,0.6142578,0.80810547,9,24,0,21,2,-29,-2,-5
13.16369104385376,false,0.20751953,0.67285156,0.81591797,0.8592386,0.3383973,0.67285156,0.81591797,7,7,2,1,5,28,-11,-8
13.16614305973053,false,0.19091797,0.6357422,0.75,0.85978264,0.33870038,0.6357422,0.75,1,-7,4,-8,-18,27,4,20
13.193912029266357,false,0.08691406,0.67285156,0.7583008,0.8606397,0.3383352,0.67285156,0.7583008,-5,8,3,-3,-22,-11,-2,4
13.223260045051575,false,0.076171875,0.7050781,0.7451172,0.86114484,0.33748722,0.7050781,0.7451172,-7,-11,2,-5,-14,1,-1,4
13.22615098953247,false,0.044921875,0.70458984,0.74658203,0.8618841,0.33529246,0.70458984,0.74658203,-6,-5,1,-8,-8,7,0,-8
13.254448056221008,false,0.095214844,0.6821289,0.6323242,0.8613066,0.33204648,0.6821289,0.6323242,-3,-3,-2,-10,-7,7,-1,-6
13.28369402885437,false,-0.015625,0.62158203,0.82421875,0.86430734,0.3246036,0.62158203,0.82421875,-10,0,1,-8,-15,-4,1,-5
13.31303596496582,false,0.00390625,0.61083984,0.83203125,0.8649649,0.31941015,0.61083984,0.83203125,-3,0,0,-3,-2,-1,-1,-2
13.315113067626953,false,-0.005859375,0.62939453,0.8183594,0.86592406,0.31488702,0.62939453,0.8183594,1,5,0,-1,-2,0,0,-4
13.343059062957764,false,0.030273438,0.69873047,0.81933594,0.86644506,0.3126405,0.69873047,0.81933594,-7,1,-1,-4,-4,2,-1,0
13.372693061828613,false,-0.025390625,0.6459961,0.87060547,0.8675398,0.3098313,0.6459961,0.87060547,3,2,0,6,5,3,0,1
13.374521970748901,false,0.03564453,0.671875,0.84814453,0.86758703,0.30915493,0.671875,0.84814453,1,-3,-1,1,3,1,0,2
13.403138041496277,false,-0.0068359375,0.61865234,0.83740234,0.86824965,0.30811417,0.61865234,0.83740234,-8,-1,-2,-4,-4,-2,-1,-3
13.405652046203613,false,0.017089844,0.6113281,0.8232422,0.8684516,0.30824295,0.6113281,0.8232422,5,0,-3,4,4,3,1,-3
13.463191986083984,false,0.030761719,0.6225586,0.82373047,0.8685266,0.30891934,0.6225586,0.82373047,10,-1,-1,1,8,3,0,1
13.465378999710083,false,0.03466797,0.6225586,0.8129883,0.86838174,0.3100099,0.6225586,0.8129883,1,-1,-1,1,12,0,-1,-1
13.493625044822693,false,0.041015625,0.6298828,0.8041992,0.86763686,0.31195864,0.6298828,0.8041992,3,1,0,-3,-2,-1,0,-1
13.523591995239258,false,0.049804688,0.6333008,0.80126953,0.86715955,0.31275606,0.6333008,0.80126953,8,-3,0,5,3,1,-2,-2
13.526219964027405,false,0.052734375,0.6479492,0.8051758,0.86656475,0.31373832,0.6479492,0.8051758,1,1,-1,-1,0,-1,0,-3
13.554038047790527,false,0.05419922,0.6464844,0.81152344,0.8660483,0.31433848,0.6464844,0.81152344,-3,0,-1,-5,-3,-2,-1,1
13.5833820104599,false,0.05126953,0.63671875,0.80908203,0.86564124,0.31471205,0.63671875,0.80908203,-4,0,-2,0,0,-3,-1,-2
13.586403965950012,false,0.053710938,0.6357422,0.8095703,0.8652304,0.31508425,0.6357422,0.8095703,-5,-2,-2,-6,-5,0,-2,1
13.613594055175781,false,0.048339844,0.6386719,0.80810547,0.86493134,0.3153917,0.6386719,0.80810547,-4,2,1,-6,-6,-2,-1,1
13.64306104183197,false,0.05126953,0.6401367,0.8100586,0.8646674,0.31568968,0.6401367,0.8100586,2,-1,0,1,-1,-1,0,-2
13.645604014396667,false,0.053710938,0.6347656,0.8017578,0.8643678,0.3159969,0.6347656,0.8017578,0,-1,-1,-5,1,1,-2,-1
13.673590064048767,false,0.056152344,0.63671875,0.80615234,0.86401904,0.31643057,0.63671875,0.80615234,-2,0,-1,-2,-7,-3,0,-1
13.703703045845032,false,0.056152344,0.6435547,0.80126953,0.8636232,0.3170301,0.6435547,0.80126953,4,-1,-1,-3,3,0,0,-1
13.705852031707764,false,0.053710938,0.6411133,0.8027344,0.8632522,0.3175777,0.6411133,0.8027344,0,0,-2,0,-2,3,-1,-1
13.733810067176819,false,0.053222656,0.6435547,0.8041992,0.8628372,0.31819257,0.6435547,0.8041992,0,0,-1,3,1,2,-1,-2
13.763520002365112,false,0.049316406,0.6513672,0.79589844,0.8623798,0.31897494,0.6513672,0.79589844,2,2,0,2,5,0,0,0
13.793182015419006,false,0.051757812,0.6533203,0.79248047,0.86196387,0.31971157,0.6533203,0.79248047,-1,1,-1,-4,0,0,-1,1
13.824177026748657,false,0.048339844,0.6567383,0.79345703,0.861572,0.32027406,0.6567383,0.79345703,0,-2,-2,-1,2,-2,0,0
13.85434103012085,false,0.05029297,0.65771484,0.7885742,0.8612392,0.32075208,0.65771484,0.7885742,1,-2,2,0,3,1,-2,-1
13.855394959449768,false,0.05029297,0.66308594,0.78515625,0.86090124,0.32118988,0.66308594,0.78515625,2,-2,1,-1,-1,-3,-1,-1
13.883031964302063,false,0.051757812,0.6616211,0.7915039,0.86040795,0.32149324,0.6616211,0.7915039,3,0,-1,-4,-2,0,-2,1
13.912251949310303,false,0.04345703,0.6586914,0.7973633,0.86026466,0.32142428,0.6586914,0.7973633,0,0,-1,-3,-3,0,-1,-2
13.91412103176117,false,0.0546875,0.65283203,0.7753906,0.8600308,0.32167226,0.65283203,0.7753906,-1,0,3,-3,0,1,-2,-1
13.942636013031006,false,0.08154297,0.77734375,0.70654297,0.85885847,0.32203376,0.77734375,0.70654297,6,3,16,-7,5,0,-1,0
13.972929954528809,false,0.049804688,0.55859375,0.8671875,0.8598333,0.31983578,0.55859375,0.8671875,-4,0,-3,8,0,0,-1,-3
13.97441303730011,false,0.041992188,0.578125,0.7919922,0.86005,0.31954306,0.578125,0.7919922,-2,0,-2,-13,-7,-4,-2,-1
14.002684950828552,false,0.045898438,0.6411133,0.7817383,0.8593673,0.3216142,0.6411133,0.7817383,3,0,-7,-1,3,-2,0,-1
14.032525062561035,false,0.045410156,0.69384766,0.7885742,0.858691,0.32350457,0.69384766,0.7885742,-4,-4,-6,-8,-2,-1,-1,0
14.03395700454712,false,0.056152344,0.66503906,0.7788086,0.8584524,0.32442224,0.66503906,0.7788086,0,-3,-7,-1,-3,0,1,1
14.062522053718567,false,0.068359375,0.6542969,0.77490234,0.8582623,0.32496896,0.6542969,0.77490234,-4,0,0,-1,0,0,-1,0
14.092947006225586,false,0.06347656,0.68310547,0.78271484,0.8580978,0.3254643,0.68310547,0.78271484,0,-2,-1,-1,3,0,-1,-2
14.094714045524597,false,0.06298828,0.6777344,0.78125,0.85814214,0.32539696,0.6777344,0.78125,-4,-2,-3,-2,-2,-4,-1,1
14.122864961624146,false,0.061035156,0.6640625,0.7832031,0.8582592,0.3249678,0.6640625,0.7832031,3,-1,0,3,5,2,0,0
14.152667045593262,false,0.05859375,0.6616211,0.796875,0.8583312,0.32448363,0.6616211,0.796875,-6,-1,-6,-5,-4,-1,-2,-3
14.182268023490906,false,0.056152344,0.6513672,0.79541016,0.858506,0.32380906,0.6513672,0.79541016,3,-1,0,-2,5,0,0,0
14.183773040771484,false,0.05908203,0.6479492,0.79248047,0.8586104,0.32325307,0.6479492,0.79248047,-2,-1,0,-8,-3,-2,-2,1
14.212496042251587,false,0.059570312,0.6508789,0.79833984,0.85868794,0.32289302,0.6508789,0.79833984,-1,2,0,2,-1,1,-2,-3
14.214434027671814,false,0.05810547,0.6582031,0.7988281,0.85868794,0.32289302,0.6582031,0.7988281,-3,-1,-2,-4,-5,-1,0,-3
14.242450952529907,false,0.055664062,0.6542969,0.7973633,0.8586823,0.3228909,0.6542969,0.7973633,5,5,-3,-4,5,3,2,-2
14.272438049316406,false,0.05908203,0.64990234,0.79296875,0.85864365,0.32296038,0.64990234,0.79296875,2,4,-3,5,5,-1,0,0
14.274381041526794,false,0.053222656,0.6489258,0.8017578,0.8585044,0.32325912,0.6489258,0.8017578,0,-10,0,2,1,-1,-3,0
14.303874969482422,false,0.060546875,0.6435547,0.796875,0.8583624,0.32367885,0.6435547,0.796875,2,2,-1,-8,-1,3,7,7
14.332650065422058,false,0.05419922,0.6645508,0.7915039,0.8579615,0.32472646,0.6645508,0.7915039,-2,0,1,2,3,-1,-2,-3
14.334483027458191,false,0.055664062,0.6582031,0.7817383,0.8577438,0.32522482,0.6582031,0.7817383,-5,-4,-2,3,-1,-1,-1,-1
14.362779021263123,false,0.05517578,0.6689453,0.78222656,0.85756123,0.3257512,0.6689453,0.78222656,-1,-1,-5,-4,-3,-3,-2,0
14.392680048942566,false,0.0546875,0.66015625,0.7739258,0.85748047,0.32588896,0.66015625,0.7739258,-6,0,1,1,0,2,1,1
14.394615054130554,false,0.05810547,0.66308594,0.78222656,0.8574317,0.32587042,0.66308594,0.78222656,-3,-4,2,0,2,-4,-3,-5
14.42286503314972,false,0.063964844,0.6635742,0.7792969,0.8574235,0.3257074,0.6635742,0.7792969,4,0,4,4,3,1,0,0
14.453068971633911,false,0.05908203,0.6699219,0.79296875,0.85746723,0.3253346,0.6699219,0.79296875,-8,1,3,-4,-4,0,-2,-3
14.455191016197205,false,0.0625,0.65185547,0.79248047,0.85763955,0.32465908,0.65185547,0.79248047,2,0,1,1,0,-3,-1,1
14.483667016029358,false,0.064941406,0.65478516,0.7910156,0.8576786,0.3244297,0.65478516,0.7910156,4,1,0,-3,-2,-2,0,1
14.513736009597778,false,0.064453125,0.65722656,0.79052734,0.85777247,0.32405278,0.65722656,0.79052734,1,-1,-1,2,8,3,-1,1
14.515776991844177,false,0.06201172,0.6508789,0.7866211,0.8579389,0.32349718,0.6508789,0.7866211,1,-2,-2,-5,-1,0,-2,-1
14.543076992034912,false,0.059570312,0.64990234,0.796875,0.8581104,0.32288244,0.64990234,0.796875,0,0,-2,-8,4,0,-1,-2
14.572957992553711,false,0.057128906,0.65283203,0.79785156,0.85825205,0.3224015,0.65283203,0.79785156,4,-1,-1,0,1,-1,-1,-1
14.574965000152588,false,0.057617188,0.65478516,0.79296875,0.85837656,0.32197514,0.65478516,0.79296875,1,-1,-5,2,-2,1,-2,-2
14.603219985961914,false,0.06201172,0.65771484,0.7939453,0.8583812,0.32179376,0.65771484,0.7939453,-2,0,-1,-3,0,1,0,-1
14.63307499885559,false,0.05859375,0.6538086,0.7944336,0.8584557,0.32149363,0.6538086,0.7944336,-2,1,-2,-1,0,-2,1,-1
14.63528597354889,false,0.05810547,0.64990234,0.7895508,0.8584557,0.32149363,0.64990234,0.7895508,0,-3,-1,2,5,0,2,2
14.662986040115356,false,0.06298828,0.65283203,0.7915039,0.8584557,0.32149363,0.65283203,0.7915039,2,1,-1,-6,-5,-2,-3,0
14.693006992340088,false,0.05419922,0.65722656,0.79248047,0.8584557,0.32149363,0.65722656,0.79248047,0,0,0,1,-4,-2,-2,-2
14.695510983467102,false,0.057617188,0.6513672,0.79589844,0.85845,0.32149148,0.6513672,0.79589844,2,-2,-2,-2,1,-1,0,-1
14.72334098815918,false,0.057617188,0.6489258,0.79052734,0.8585099,0.32118586,0.6489258,0.79052734,-5,0,1,-8,-5,-2,-1,0
14.753883957862854,false,0.056640625,0.6557617,0.7988281,0.8585099,0.32118586,0.6557617,0.7988281,1,0,-1,-2,3,-1,-1,-3
14.755867004394531,false,0.06201172,0.6503906,0.7949219,0.85855865,0.32093713,0.6503906,0.7949219,-2,0,-1,-2,1,0,-1,0
14.783226013183594,false,0.061035156,0.6489258,0.796875,0.85855865,0.32093713,0.6489258,0.796875,0,-1,0,3,-3,1,0,0
14.813626050949097,false,0.06201172,0.6489258,0.7993164,0.85855865,0.32093713,0.6489258,0.7993164,2,0,-2,1,2,-2,-2,0
14.816001057624817,false,0.05859375,0.65185547,0.7993164,0.85857546,0.32088235,0.65185547,0.7993164,6,0,0,2,1,0,-1,-1
14.843551993370056,false,0.060058594,0.6513672,0.79785156,0.85857546,0.32088235,0.6513672,0.79785156,4,-3,-2,5,5,1,-1,0
14.873515009880066,false,0.06201172,0.64746094,0.7944336,0.85857546,0.32088235,0.64746094,0.7944336,-1,2,-1,1,0,0,-1,0
14.876224994659424,false,0.061035156,0.6508789,0.80078125,0.85857546,0.32088235,0.6508789,0.80078125,3,-1,-2,0,-2,1,-1,-1
14.903236985206604,false,0.057128906,0.6513672,0.7944336,0.8585923,0.3208276,0.6513672,0.7944336,-1,1,1,-2,0,-1,-1,-1
14.933164954185486,false,0.061523438,0.6513672,0.7988281,0.8585923,0.3208276,0.6513672,0.7988281,3,-1,-1,-2,5,0,-2,-3
14.935273051261902,false,0.060058594,0.6533203,0.7963867,0.85860825,0.32081077,0.6533203,0.7963867,3,0,-1,3,1,-1,-1,0
14.963104009628296,false,0.061523438,0.64990234,0.80126953,0.85860825,0.32081077,0.64990234,0.80126953,-3,-1,0,-3,-1,-2,-2,-1
14.992984056472778,false,0.05859375,0.6484375,0.79296875,0.85860825,0.32081077,0.6484375,0.79296875,-1,-1,0,0,1,0,-1,-1
14.995671033859253,false,0.061523438,0.6503906,0.796875,0.8586252,0.32075605,0.6503906,0.796875,2,0,-1,-2,1,-3,0,1
15.023043990135193,false,0.061035156,0.6533203,0.7963867,0.8586252,0.32075605,0.6533203,0.7963867,-4,-1,-1,-4,-1,0,-1,-1
15.053264021873474,false,0.060546875,0.64941406,0.79589844,0.8586252,0.32075605,0.64941406,0.79589844,10,1,-2,4,6,-2,0,2
15.055076003074646,false,0.05859375,0.6508789,0.7998047,0.8586252,0.32075605,0.6508789,0.7998047,5,0,-2,2,0,2,-1,-3
15.083510994911194,false,0.05810547,0.6513672,0.8017578,0.8586419,0.32070127,0.6513672,0.8017578,-7,0,-2,-8,-5,-1,0,0
15.113749027252197,false,0.060058594,0.6508789,0.7998047,0.8586419,0.32070127,0.6508789,0.7998047,-6,-2,-1,-4,-3,-1,-1,0
15.115790009498596,false,0.061523438,0.64746094,0.79541016,0.8586419,0.32070127,0.64746094,0.79541016,-4,-3,0,-3,0,1,0,-2
15.142925024032593,false,0.060546875,0.6503906,0.796875,0.8586419,0.32070127,0.6503906,0.796875,1,-1,-1,0,0,-3,0,-1
15.17314100265503,false,0.05810547,0.65234375,0.7993164,0.8586691,0.32062757,0.65234375,0.7993164,-1,-1,-2,2,0,1,0,1
15.175102949142456,false,0.063964844,0.65234375,0.7910156,0.85865307,0.32064438,0.65234375,0.7910156,4,-1,0,-2,1,-2,-1,0
15.203189969062805,false,0.057128906,0.6508789,0.7949219,0.8586691,0.32062757,0.6508789,0.7949219,-2,-2,-2,-2,-1,1,-2,-1
15.233109951019287,false,0.05517578,0.6464844,0.79541016,0.8586691,0.32062757,0.6464844,0.79541016,2,2,1,-1,1,0,-2,-1
15.26331102848053,false,0.05859375,0.64941406,0.7973633,0.8586691,0.32062757,0.64941406,0.7973633,-2,-1,-3,3,6,0,-2,0
15.26514196395874,false,0.05419922,0.6455078,0.79785156,0.85868585,0.3205728,0.6455078,0.79785156,1,-2,-2,3,-1,0,1,0
15.293949007987976,false,0.0625,0.6459961,0.8017578,0.85868585,0.3205728,0.6459961,0.8017578,2,-2,-1,-2,-1,-1,-1,-1
15.295021057128906,false,0.0625,0.6508789,0.7963867,0.85870266,0.32051805,0.6508789,0.7963867,-3,0,0,-4,-1,1,-1,-1
15.323364973068237,false,0.061035156,0.64941406,0.7944336,0.85870266,0.32051805,0.64941406,0.7944336,-6,-1,0,-2,-2,-1,-2,0
15.353589057922363,false,0.057128906,0.6533203,0.8022461,0.85870266,0.32051805,0.6533203,0.8022461,5,-2,-2,0,4,-1,0,-2
15.35511302947998,false,0.061035156,0.6489258,0.79296875,0.85870266,0.32051805,0.6489258,0.79296875,4,0,0,1,1,-3,-1,-1
15.383010983467102,false,0.0625,0.65283203,0.79296875,0.85870266,0.32051805,0.65283203,0.79296875,2,0,-1,1,0,0,2,2
15.413081049919128,false,0.064941406,0.6508789,0.79833984,0.85870266,0.32051805,0.6508789,0.79833984,5,2,1,1,1,2,0,1
15.415061950683594,false,0.061523438,0.64697266,0.79589844,0.85871875,0.32050127,0.64697266,0.79589844,1,-1,-1,0,3,0,-2,-1
15.443022966384888,false,0.061035156,0.6464844,0.7895508,0.85873556,0.3204465,0.6464844,0.7895508,0,-1,-1,-5,1,0,-1,-1
15.473111987113953,false,0.057128906,0.6459961,0.7993164,0.85873556,0.3204465,0.6459961,0.7993164,-4,-1,0,-5,-2,-1,-2,-1
15.475180983543396,false,0.057617188,0.64941406,0.79785156,0.85873556,0.3204465,0.64941406,0.79785156,-7,-1,-2,-2,-2,0,-1,-1
15.503834962844849,false,0.060546875,0.64941406,0.7988281,0.8587523,0.3203917,0.64941406,0.7988281,-6,0,0,-5,0,-1,0,0
15.533249020576477,false,0.05908203,0.6533203,0.7993164,0.8587523,0.3203917,0.6533203,0.7993164,0,-1,-1,1,-2,-1,0,-1
15.534967064857483,false,0.061523438,0.6542969,0.79248047,0.8587523,0.3203917,0.6542969,0.79248047,1,2,0,0,1,0,0,0
15.563169956207275,false,0.06201172,0.65185547,0.7963867,0.8587523,0.3203917,0.65185547,0.7963867,0,0,-1,-3,0,0,-2,-2
15.593006014823914,false,0.061523438,0.64746094,0.7949219,0.8587523,0.3203917,0.64746094,0.7949219,4,-1,-1,0,0,0,-1,-2
15.595589995384216,false,0.060058594,0.6582031,0.79003906,0.8587523,0.3203917,0.6582031,0.79003906,4,-2,-1,-1,2,-1,-1,0
15.622874021530151,false,0.060058594,0.64990234,0.79248047,0.8587523,0.3203917,0.64990234,0.79248047,-2,-2,0,-2,0,-1,0,-1
15.653332948684692,false,0.05810547,0.64697266,0.7998047,0.8587466,0.32038957,0.64697266,0.7998047,0,0,0,0,2,-2,-1,1
15.655141949653625,false,0.060546875,0.64941406,0.7973633,0.8587466,0.32038957,0.64941406,0.7973633,3,0,-3,-3,2,2,0,-1
15.683004021644592,false,0.06201172,0.65283203,0.79248047,0.8587466,0.32038957,0.65283203,0.79248047,-1,0,-3,-4,1,0,-1,0
15.713078022003174,false,0.060546875,0.65185547,0.79833984,0.8587634,0.3203348,0.65185547,0.79833984,2,0,-2,-2,-1,-1,-1,-1
15.715236067771912,false,0.05859375,0.6508789,0.7861328,0.8587466,0.32038957,0.6508789,0.7861328,0,0,0,0,-1,-1,0,0
15.772762060165405,false,0.05859375,0.65478516,0.79589844,0.8587634,0.3203348,0.65478516,0.79589844,-3,-1,-2,0,-2,-1,0,1
15.77486002445221,false,0.060058594,0.64941406,0.79785156,0.8587634,0.3203348,0.64941406,0.79785156,4,-2,-1,1,1,-3,0,1
15.776949048042297,false,0.061523438,0.6508789,0.79345703,0.8587634,0.3203348,0.6508789,0.79345703,-4,1,2,-3,3,-1,0,-2
15.803284049034119,false,0.05908203,0.6459961,0.7993164,0.8587795,0.32031804,0.6459961,0.7993164,3,0,-2,0,4,0,0,1
15.833072066307068,false,0.052246094,0.63671875,0.8071289,0.8587567,0.32057646,0.63671875,0.8071289,-2,0,2,-1,0,-2,-2,-1
15.835602045059204,false,0.056152344,0.61865234,0.8251953,0.85867995,0.32130304,0.61865234,0.8251953,-2,4,6,-13,-9,-3,-1,-4
15.863165974617004,false,0.056152344,0.6166992,0.82470703,0.8584704,0.32296407,0.6166992,0.82470703,-4,7,5,-16,17,8,6,1
15.89299201965332,false,0.048828125,0.6459961,0.80029297,0.8576644,0.32668278,0.6459961,0.80029297,-11,-6,-3,-1,2,6,3,4
15.895449995994568,false,0.053710938,0.64746094,0.8095703,0.8568825,0.3307769,0.64746094,0.8095703,1,-3,-7,4,-3,-3,-3,-5
15.922966003417969,false,0.056640625,0.62646484,0.8227539,0.85611963,0.3356482,0.62646484,0.8227539,4,-1,-3,-1,-4,-3,-2,-2
15.953608989715576,false,0.051757812,0.6333008,0.82958984,0.8546691,0.3426123,0.6333008,0.82958984,2,-6,-7,4,-5,-4,-4,-3
15.95566201210022,false,0.04248047,0.64160156,0.8076172,0.8522294,0.35207415,0.64160156,0.8076172,-4,11,17,9,-10,-6,-2,-2
15.984060049057007,false,0.05126953,0.6455078,0.7441406,0.84884113,0.36365825,0.6455078,0.7441406,4,-5,-18,-1,7,-2,0,3
16.013677954673767,false,0.072753906,0.7807617,0.6977539,0.84464306,0.3769093,0.7807617,0.6977539,-3,-5,1,-8,-4,-2,-1,-1
16.016314029693604,false,0.15478516,1.0336914,0.9057617,0.8407656,0.38674974,1.0336914,0.9057617,-8,1,3,-2,0,1,-3,-3
16.043617010116577,false,0.024414062,0.80322266,0.76660156,0.8402091,0.39028674,0.80322266,0.76660156,12,6,18,7,-9,-4,0,2
16.07300305366516,false,0.10644531,0.68066406,0.67041016,0.83917123,0.3965127,0.68066406,0.67041016,6,4,-19,-7,5,4,4,0
16.07566201686859,false,0.15234375,0.80566406,0.6245117,0.83623,0.40602934,0.80566406,0.6245117,9,7,-1,-1,0,2,3,2
16.10384500026703,false,0.056640625,0.953125,0.6689453,0.8341654,0.41360345,0.953125,0.6689453,-1,-5,6,-1,7,-2,-3,-4
16.133138060569763,false,0.06933594,0.93652344,0.6977539,0.8336766,0.417937,0.93652344,0.6977539,-8,-12,-9,2,-2,-5,-6,2
16.135573983192444,false,-0.033691406,0.97265625,0.6689453,0.8361392,0.41758126,0.97265625,0.6689453,-5,-6,-20,-18,-1,19,20,0
16.163643956184387,false,-0.005859375,0.83496094,0.74658203,0.83933806,0.41512167,0.83496094,0.74658203,-2,-1,-2,10,-3,6,-3,-5
16.192952036857605,false,0.23388672,0.82177734,0.63378906,0.83952475,0.41683254,0.82177734,0.63378906,-17,-2,5,-1,1,-11,-4,-6
16.194759011268616,false,0.104003906,0.8857422,0.7573242,0.8398714,0.41902015,0.8857422,0.7573242,-6,-5,-1,-3,-7,-10,-2,-1
16.223427057266235,false,0.053710938,0.7988281,0.78808594,0.83857673,0.4234083,0.7988281,0.78808594,4,-15,-40,-15,15,6,3,-7
16.25295400619507,false,0.05126953,0.7963867,0.77783203,0.83684766,0.42971608,0.7963867,0.77783203,-3,-2,-10,-4,14,4,-1,4
16.255236983299255,false,0.05810547,0.8979492,0.75927734,0.8339956,0.43878764,0.8979492,0.75927734,-32,-2,0,-17,-4,11,8,1
16.28328800201416,false,0.107910156,1.078125,0.76171875,0.83068657,0.44833514,1.078125,0.76171875,-36,-48,-33,-25,-33,-14,12,44
16.313935041427612,false,0.09375,1.1591797,0.7841797,0.827131,0.45650598,1.1591797,0.7841797,66,27,15,1,13,19,29,26
16.315412044525146,false,0.1586914,1.0874023,0.7988281,0.82424575,0.4613799,1.0874023,0.7988281,21,7,8,37,62,23,1,-40
16.343139052391052,false,0.20800781,0.96191406,0.7246094,0.8218046,0.46449292,0.96191406,0.7246094,-35,24,21,-10,-17,-10,-19,-18
16.373126983642578,false,0.32958984,0.9038086,0.6669922,0.8193677,0.4663877,0.9038086,0.6669922,-14,-7,-8,-62,-49,-24,0,86
16.374709010124207,false,0.42382812,0.96484375,0.6152344,0.81703824,0.46729752,0.96484375,0.6152344,-4,39,59,58,4,2,-14,-23
16.40577006340027,true,0.56152344,0.87646484,0.57128906,0.81322867,0.46670768,0.87646484,0.57128906,-7,6,27,51,0,-9,-17,-54
16.433035016059875,true,0.58984375,0.8071289,0.5678711,0.80779076,0.46462923,0.8071289,0.5678711,-19,-39,-26,-14,-53,-12,3,38
16.435279965400696,true,0.5410156,0.71240234,0.5004883,0.80214417,0.45905694,0.71240234,0.5004883,27,14,-20,9,22,8,-10,-27
16.463122963905334,true,0.5917969,0.64404297,0.48779297,0.7984253,0.44868317,0.64404297,0.48779297,-3,12,33,18,1,-5,-1,-1
16.49293303489685,true,0.6123047,0.57910156,0.42333984,0.7947757,0.4362996,0.57910156,0.42333984,3,-31,-38,-24,-6,1,-4,2
16.494966983795166,true,0.68896484,0.4868164,0.36132812,0.78992915,0.4220646,0.4868164,0.36132812,45,34,-12,-11,45,19,10,-47
16.52303194999695,true,0.7446289,0.44140625,0.36572266,0.78340405,0.4071748,0.44140625,0.36572266,29,-10,-30,-24,-17,1,1,1
16.55280900001526,true,0.6777344,0.31201172,0.33642578,0.7754084,0.3912443,0.31201172,0.33642578,-44,15,59,50,-21,-12,-15,-39
16.554579973220825,true,0.74902344,0.3251953,0.2758789,0.7667882,0.37667966,0.3251953,0.2758789,61,19,-14,14,17,2,11,37
16.582996010780334,true,0.7602539,0.26171875,0.28466797,0.7576964,0.3601713,0.26171875,0.28466797,-22,-34,8,-32,-11,-2,9,19
16.6126229763031,true,0.74072266,0.14208984,0.265625,0.7486847,0.3407718,0.14208984,0.265625,-15,-19,-15,-49,-30,-2,0,-3
16.61448299884796,true,0.76416016,0.09667969,0.21923828,0.7404938,0.32288262,0.09667969,0.21923828,-17,4,-9,-1,-17,-8,-7,2
16.64361298084259,true,0.77978516,-0.027832031,0.2055664,0.73263824,0.30421305,-0.027832031,0.2055664,-7,-17,-22,-28,7,5,8,15
16.703307032585144,true,0.76708984,-0.06933594,0.28125,0.7253792,0.28730732,-0.06933594,0.28125,-19,18,4,-27,-12,-2,-2,-20
16.705610036849976,true,0.7426758,-0.09326172,0.22216797,0.71808684,0.2728913,-0.09326172,0.22216797,0,-10,-12,19,2,8,-1,-2
16.732576966285706,true,0.75341797,-0.15136719,0.2368164,0.70700276,0.24805829,-0.15136719,0.2368164,-10,10,-5,-26,-35,-8,-5,17
16.734766960144043,true,0.73095703,-0.13476562,0.27197266,0.7039343,0.23901905,-0.13476562,0.27197266,2,-13,4,6,8,-5,2,-7
16.793120980262756,true,0.72753906,-0.16210938,0.2861328,0.7020436,0.23096271,-0.16210938,0.2861328,-17,-9,-10,-26,5,-3,-6,14
16.79548406600952,true,0.7290039,-0.19677734,0.25439453,0.70132095,0.22480114,-0.19677734,0.25439453,-2,-4,1,10,6,-1,-7,-13
16.796947956085205,true,0.73291016,-0.20898438,0.2368164,0.702148,0.22039782,-0.20898438,0.2368164,9,-8,9,18,3,-3,0,-7
16.82314896583557,true,0.7158203,-0.27294922,0.24853516,0.70472354,0.21661733,-0.27294922,0.24853516,-21,13,27,31,-7,1,0,-10
16.853052020072937,true,0.7138672,-0.3100586,0.25048828,0.7093669,0.21515387,-0.3100586,0.25048828,-6,15,-6,3,-4,0,4,10
16.855126976966858,true,0.7060547,-0.34521484,0.2734375,0.71652144,0.21485266,-0.34521484,0.2734375,19,-7,-14,-3,-1,-9,-6,-4
16.88310205936432,true,0.7167969,-0.36035156,0.29541016,0.7266936,0.2151516,-0.36035156,0.29541016,6,-1,6,-15,5,6,-1,7
16.91261398792267,true,0.7109375,-0.38134766,0.33447266,0.74090636,0.21832293,-0.38134766,0.33447266,9,-7,-11,-12,-15,-2,1,-8
16.9144389629364,true,0.74072266,-0.42578125,0.33691406,0.75763273,0.22216895,-0.42578125,0.33691406,2,7,8,-2,12,1,-1,-11
16.9430730342865,true,0.8198242,-0.5341797,0.34814453,0.77662593,0.22839786,-0.5341797,0.34814453,-13,-5,5,1,-11,6,2,-26
16.972540974617004,true,0.8076172,-0.5620117,0.40478516,0.79623276,0.24201325,-0.5620117,0.40478516,10,-3,-13,-13,-41,-14,-38,-97
16.974650979042053,true,0.76220703,-0.4506836,0.5883789,0.8135648,0.26642734,-0.4506836,0.5883789,-65,-28,14,-45,-43,-10,6,55
17.004807949066162,true,0.53759766,-0.20654297,0.85009766,0.8253727,0.3042196,-0.20654297,0.85009766,-44,-53,-12,-69,-29,-13,-60,62
17.03315305709839,true,0.4560547,-0.0546875,0.93847656,0.8303573,0.3523098,-0.0546875,0.93847656,35,52,3,94,115,37,85,52
17.036265969276428,true,0.44482422,0.296875,0.8144531,0.8261888,0.4099205,0.296875,0.8144531,76,77,29,42,31,10,20,61
17.06374502182007,true,0.20800781,0.8144531,-0.24414062,0.8163226,0.4633397,0.8144531,-0.24414062,-58,-52,-15,-47,49,-32,5,28
17.093268036842346,true,-0.3071289,2.6264648,0.21728516,0.80898494,0.50294524,2.6264648,0.21728516,42,-22,-11,-50,42,-5,-6,-60
17.096765995025635,true,-0.7446289,3.1572266,0.375,0.8122449,0.5040594,3.1572266,0.375,-94,-37,2,-77,-128,49,25,1
17.122995972633362,true,0.11621094,1.4072266,0.14501953,0.82686937,0.4827423,1.4072266,0.14501953,123,10,-30,53,-96,8,-18,-4
17.152698040008545,true,0.64697266,0.8779297,0.5073242,0.84644604,0.45389578,0.8779297,0.5073242,8,12,1,29,87,22,15,38
17.154922008514404,true,0.99853516,0.53564453,0.59814453,0.8521666,0.4399697,0.53564453,0.59814453,-6,6,-5,2,-12,-44,6,-17
17.18318796157837,true,0.8857422,0.43847656,0.6689453,0.8511776,0.4369724,0.43847656,0.6689453,5,5,-5,47,20,12,-8,-31
17.212620973587036,true,0.40576172,0.5810547,0.6767578,0.84758604,0.44509557,0.5810547,0.6767578,1,34,-5,36,4,3,1,-23
17.21437096595764,true,0.37597656,0.82421875,0.55615234,0.8423214,0.45650157,0.82421875,0.55615234,4,2,17,-17,8,-10,-8,-3
17.242617964744568,true,0.48095703,0.9145508,0.5214844,0.8394161,0.46313456,0.9145508,0.5214844,6,-7,-8,-17,31,-4,-3,-23
17.272220969200134,true,0.4633789,0.8701172,0.5493164,0.84027356,0.46231526,0.8701172,0.5493164,-7,-20,-9,26,10,1,-5,7
17.273980975151062,true,0.45166016,0.71972656,0.55371094,0.8429929,0.45735615,0.71972656,0.55371094,-16,-1,14,11,17,-13,-24,-18
17.303735971450806,true,0.44189453,0.6411133,0.5527344,0.8446806,0.4541707,0.6411133,0.5527344,15,10,9,15,8,-2,2,12
17.333567023277283,true,0.421875,0.671875,0.53759766,0.8446642,0.45428395,0.671875,0.53759766,-12,3,-5,-17,-24,-13,-5,5
17.3350510597229,true,0.41748047,0.7597656,0.49267578,0.8438017,0.45644885,0.7597656,0.49267578,4,-2,0,-21,-17,-6,-9,-8
17.362588047981262,true,0.41503906,0.8027344,0.4819336,0.84360147,0.4575383,0.8027344,0.4819336,-16,-8,-15,-15,-13,-1,-1,14
17.392583966255188,true,0.4091797,0.7680664,0.4868164,0.84413797,0.45710406,0.7680664,0.4868164,1,0,7,-11,-8,-3,-7,-36
17.394952058792114,true,0.4140625,0.7441406,0.49169922,0.8445848,0.45674846,0.7441406,0.49169922,10,3,2,9,-6,6,5,2
17.423913955688477,true,0.42773438,0.75097656,0.49365234,0.84446436,0.4573597,0.75097656,0.49365234,-8,-6,-6,-5,10,4,6,23
17.452937960624695,false,0.42822266,0.7631836,0.48388672,0.84365577,0.45899954,0.7631836,0.48388672,-9,-8,-5,-3,-6,-4,-7,-15
17.454997062683105,false,0.4375,0.7651367,0.4711914,0.84249556,0.4610135,0.7651367,0.4711914,-8,0,11,-10,-9,-5,3,29
17.482730984687805,false,0.43847656,0.7675781,0.45410156,0.84123987,0.46298102,0.7675781,0.45410156,3,4,-13,2,-2,-2,-3,-5
17.512407064437866,false,0.46923828,0.7651367,0.44873047,0.8398854,0.46462265,0.7651367,0.44873047,1,-12,-15,-23,-6,3,-3,-3
17.51403295993805,false,0.47851562,0.74121094,0.46875,0.8388727,0.4653079,0.74121094,0.46875,-1,-1,10,6,1,9,9,3
17.54313099384308,false,0.46484375,0.7348633,0.4736328,0.83773106,0.46619964,0.7348633,0.4736328,10,8,6,20,16,2,1,-12
17.573179006576538,false,0.4560547,0.7211914,0.46728516,0.8365721,0.4669935,0.7211914,0.46728516,-7,10,3,22,8,0,-4,-8
17.57437300682068,false,0.46191406,0.71875,0.45996094,0.8352262,0.46821252,0.71875,0.45996094,2,-1,0,-9,3,-2,-3,-2
17.603113055229187,false,0.47216797,0.7529297,0.46679688,0.8335919,0.46986824,0.7529297,0.46679688,2,5,-1,0,3,0,0,-4
17.633859992027283,false,0.4609375,0.7763672,0.4765625,0.8320188,0.471341,0.7763672,0.4765625,-2,-4,5,0,1,-2,-1,3
17.636417984962463,false,0.45117188,0.7729492,0.46533203,0.8303569,0.472737,0.7729492,0.46533203,-4,-4,-5,-3,0,-2,-1,3
17.663506984710693,false,0.4477539,0.77490234,0.46142578,0.82804084,0.47499734,0.77490234,0.46142578,3,0,2,3,5,-1,-2,1
17.692888975143433,false,0.47558594,0.7583008,0.42626953,0.82498854,0.4777438,0.7583008,0.42626953,2,1,7,15,-3,1,-1,5
17.694435000419617,false,0.5317383,0.7963867,0.44921875,0.8209391,0.4810886,0.7963867,0.44921875,4,-10,-15,-16,-17,-1,-1,2
17.72338604927063,false,0.56152344,0.7294922,0.4008789,0.81722,0.48212865,0.7294922,0.4008789,5,-18,-66,-81,-28,-3,0,4
17.752889037132263,false,0.56347656,0.7216797,0.4189453,0.81486744,0.48183995,0.7216797,0.4189453,9,20,36,-61,-11,7,12,0
17.75525200366974,false,0.60058594,0.71777344,0.30810547,0.8124027,0.48158208,0.71777344,0.30810547,-11,25,58,100,22,2,-2,-9
17.78340196609497,false,0.67578125,0.66064453,0.2919922,0.81139374,0.4781809,0.66064453,0.2919922,7,-7,16,-59,-6,2,13,36
17.81324303150177,false,0.6953125,0.57177734,0.39990234,0.8123536,0.4715179,0.57177734,0.39990234,-26,-6,-32,47,18,2,-7,-9
17.815186977386475,false,0.6645508,0.58691406,0.5058594,0.81050915,0.47053355,0.58691406,0.5058594,23,-25,-46,-22,-34,-25,-35,-13
17.873419046401978,false,0.73046875,0.4584961,0.3852539,0.8045507,0.47408736,0.4584961,0.3852539,10,23,24,20,5,11,10,-23
17.875424027442932,false,0.6982422,0.4321289,0.28125,0.7979036,0.48111048,0.4321289,0.28125,-10,8,-15,10,-7,-2,3,9
17.877295970916748,false,0.6855469,0.6689453,0.22216797,0.7919641,0.48994958,0.6689453,0.22216797,-21,-5,4,27,27,4,-16,-11
17.903941988945007,false,0.7504883,0.8154297,0.16992188,0.78962934,0.49421263,0.8154297,0.16992188,-1,1,3,-8,-7,-4,3,-6
17.932703971862793,false,0.63183594,0.8276367,0.3671875,0.7923268,0.4912292,0.8276367,0.3671875,0,-6,-1,8,10,2,6,13
17.934977054595947,false,0.58496094,0.51464844,0.3671875,0.7948672,0.4861489,0.51464844,0.3671875,-6,0,5,-4,-11,2,0,-5
17.96336805820465,false,0.63134766,0.3413086,0.296875,0.7961264,0.48458543,0.3413086,0.296875,15,7,-18,-3,3,1,7,2
17.992804050445557,false,0.66552734,0.4560547,0.25439453,0.7938753,0.4903886,0.4560547,0.25439453,-25,-9,46,24,-7,-17,-8,8
17.994724988937378,false,0.6479492,0.6176758,0.23144531,0.79052496,0.4985947,0.6176758,0.23144531,-12,-5,2,0,-9,2,-5,-14
18.023038029670715,false,0.55859375,0.71875,0.3388672,0.7906249,0.50264776,0.71875,0.3388672,40,5,2,-18,-5,-4,3,4
18.052747011184692,false,0.47607422,0.7661133,0.3930664,0.79356724,0.5028388,0.7661133,0.3930664,4,5,-5,9,7,5,4,2
18.055420994758606,false,0.5229492,0.72802734,0.36035156,0.7973299,0.50111604,0.72802734,0.36035156,-18,-4,8,-9,5,-5,-2,16
18.08380699157715,false,0.5546875,0.6958008,0.38916016,0.79988414,0.4996453,0.6958008,0.38916016,2,-3,-9,-5,0,7,-5,-29
18.1129629611969,false,0.45751953,0.67529297,0.47265625,0.80080074,0.4994018,0.67529297,0.47265625,-13,-2,-2,-8,-18,1,4,7
18.11514401435852,false,0.40185547,0.69433594,0.50683594,0.80058914,0.5009481,0.69433594,0.50683594,-2,3,6,6,-3,-3,-4,-7
18.145117044448853,false,0.4560547,0.73828125,0.46484375,0.7998468,0.5030783,0.73828125,0.46484375,-2,2,-7,7,8,0,2,-4
18.173078060150146,false,0.4946289,0.7675781,0.4658203,0.79995406,0.5033741,0.7675781,0.4658203,9,-7,-14,11,8,3,-4,0
18.203377962112427,false,0.48779297,0.7636719,0.4736328,0.8012301,0.50129527,0.7636719,0.4736328,13,-3,-5,-15,-2,1,-1,7
18.20586895942688,false,0.45751953,0.7548828,0.53125,0.80290955,0.4977136,0.7548828,0.53125,6,5,-11,-10,5,3,3,-2
18.23281502723694,false,0.40039062,0.7138672,0.5859375,0.8045725,0.49304634,0.7138672,0.5859375,-1,-5,-1,-12,-10,-3,7,8
18.235041975975037,false,0.36767578,0.6894531,0.5698242,0.8063604,0.48841846,0.6894531,0.5698242,11,-2,5,9,-3,1,7,3
18.264520049095154,false,0.3930664,0.7324219,0.55908203,0.80814457,0.48397118,0.7324219,0.55908203,-2,0,-7,2,0,0,-3,-4
18.29305601119995,false,0.33642578,0.80371094,0.57958984,0.809537,0.47950858,0.80371094,0.57958984,-5,-5,2,1,3,-4,1,0
18.296296000480652,false,0.27978516,0.8359375,0.65283203,0.8107673,0.47420394,0.8359375,0.65283203,-7,-1,-4,-2,6,1,-4,2
18.32295799255371,false,0.20605469,0.80615234,0.68847656,0.8126185,0.4675013,0.80615234,0.68847656,15,2,-6,3,13,7,9,1
18.35385501384735,false,0.25732422,0.6948242,0.5698242,0.8145867,0.46140584,0.6948242,0.5698242,1,4,8,-1,8,4,4,4
18.382956981658936,false,0.33789062,0.87060547,0.703125,0.8145822,0.45767984,0.87060547,0.703125,-12,-5,-4,-9,-16,-9,-8,-12
18.41358506679535,false,0.18554688,0.8935547,0.6870117,0.81498563,0.4524171,0.8935547,0.6870117,-1,1,5,6,9,2,5,-5
18.414950013160706,false,0.14453125,0.80810547,0.76660156,0.8160737,0.44496465,0.80810547,0.76660156,7,0,-5,3,4,5,2,1
18.443196058273315,false,0.12695312,0.75097656,0.7211914,0.81801337,0.43757182,0.75097656,0.7211914,-9,9,0,-6,-11,-2,1,-1
18.445037007331848,false,0.20654297,0.5942383,0.5722656,0.8205998,0.43093085,0.5942383,0.5722656,11,6,12,11,4,0,-2,-1
18.473309993743896,false,0.23876953,0.6694336,0.5366211,0.822847,0.42610303,0.6694336,0.5366211,4,2,0,3,-4,-1,0,6
18.503545999526978,false,0.13964844,0.7636719,0.48876953,0.8252905,0.42091584,0.7636719,0.48876953,-4,-9,-21,-1,-1,-1,0,5
18.50626802444458,false,0.033691406,0.9921875,0.74609375,0.8270159,0.4142099,0.9921875,0.74609375,-13,9,34,-4,-26,-6,-3,-1
18.53336000442505,false,-0.09765625,1.0341797,0.8178711,0.8293888,0.40523347,1.0341797,0.8178711,5,-2,-14,-12,-13,4,5,3
18.564165949821472,false,-0.041503906,0.92871094,0.8144531,0.8335945,0.39454892,0.92871094,0.8144531,-1,-19,5,-13,-12,-4,3,-2
18.593489050865173,false,-0.00048828125,0.86816406,0.8095703,0.8372568,0.3851491,0.86816406,0.8095703,-10,-4,-3,-1,2,3,5,15
18.595000982284546,false,0.00048828125,0.84033203,0.8120117,0.83892256,0.37825984,0.84033203,0.8120117,4,0,9,-9,-3,2,1,-3
18.623108983039856,false,0.0068359375,0.7998047,0.8125,0.83975923,0.37324667,0.7998047,0.8125,-1,14,-1,6,2,-2,-5,21
18.6253479719162,false,0.012207031,0.7216797,0.7392578,0.84062165,0.37038139,0.7216797,0.7392578,-4,-3,12,10,9,-1,-1,-10
18.653018951416016,false,0.076171875,0.7036133,0.6665039,0.84123015,0.3697091,0.7036133,0.6665039,-11,-9,2,-9,-13,-2,-3,-12
18.655354022979736,false,0.05419922,0.79345703,0.6977539,0.84049,0.3711706,0.79345703,0.6977539,-2,-13,-7,0,-1,0,-4,-7
18.683092951774597,false,0.026855469,0.81689453,0.72558594,0.8397431,0.37195772,0.81689453,0.72558594,5,-1,3,9,10,-1,-2,-17
18.713235020637512,false,0.01171875,0.77978516,0.7314453,0.8402653,0.3714844,0.77978516,0.7314453,5,7,-5,7,3,1,-3,-6
18.743036031723022,false,0.029296875,0.7441406,0.71777344,0.8410791,0.37097815,0.7441406,0.71777344,13,-7,-16,1,3,3,0,1
18.77311599254608,false,0.027832031,0.7192383,0.70654297,0.84146637,0.3711095,0.7192383,0.70654297,-23,-26,1,-4,-6,-12,0,34
18.774973034858704,false,0.03125,0.73583984,0.7026367,0.8415576,0.37209946,0.73583984,0.7026367,-14,-3,10,1,-2,-2,-6,2
18.77687096595764,false,0.028320312,0.75,0.7109375,0.84158576,0.37318358,0.75,0.7109375,15,8,-6,0,8,2,2,-15
18.803786039352417,false,0.041015625,0.7583008,0.7001953,0.84172606,0.37429038,0.7583008,0.7001953,1,0,-3,-4,-2,-2,-1,-3
18.83336102962494,false,0.040039062,0.75634766,0.68603516,0.8419631,0.37556902,0.75634766,0.68603516,1,3,1,-7,-9,-2,-1,18
18.86339795589447,false,0.040039062,0.74560547,0.6855469,0.8420695,0.37678277,0.74560547,0.6855469,-24,-1,18,-3,-4,-2,-5,-13
18.86605203151703,false,0.0073242188,0.7836914,0.68310547,0.8418754,0.37879205,0.7836914,0.68310547,3,-4,-4,6,5,0,-2,11
18.89339005947113,false,0.019042969,0.76904297,0.65966797,0.84170663,0.3805686,0.76904297,0.65966797,2,2,9,1,5,3,-2,-13
18.923359036445618,false,0.032226562,0.7602539,0.6582031,0.84171355,0.38221973,0.7602539,0.6582031,-15,-7,2,-12,-20,-5,-4,-2
18.926159024238586,false,0.021972656,0.8071289,0.6821289,0.84172326,0.38399428,0.8071289,0.6821289,11,3,-6,-4,-1,2,2,-8
18.953078985214233,false,0.0107421875,0.7866211,0.66259766,0.8423415,0.3851576,0.7866211,0.66259766,-2,15,5,-9,-1,-5,1,22
18.983147978782654,false,0.025390625,0.7788086,0.6464844,0.84348375,0.38606519,0.7788086,0.6464844,8,-6,-21,-1,-3,3,0,18
18.98511004447937,false,0.03125,0.78515625,0.64990234,0.84420896,0.38752675,0.78515625,0.64990234,14,4,-13,-8,-3,2,1,10
19.013139009475708,false,0.03466797,0.7788086,0.6484375,0.8448323,0.38942492,0.7788086,0.6484375,0,1,6,0,-6,-2,1,-16
19.043025016784668,false,0.0390625,0.80371094,0.64941406,0.8455651,0.3917445,0.80371094,0.64941406,4,-1,-1,5,5,1,-2,-3
19.073106050491333,false,0.040527344,0.8027344,0.63916016,0.8462229,0.39405763,0.8027344,0.63916016,-22,-6,-1,1,-1,-2,-9,-18
19.074965000152588,false,0.03515625,0.8154297,0.6376953,0.846926,0.39645293,0.8154297,0.6376953,-10,-14,7,0,1,-6,-6,5
19.10291600227356,false,0.036132812,0.8198242,0.62402344,0.84770685,0.3987665,0.8198242,0.62402344,6,-7,-5,2,2,2,4,9
19.104936003684998,false,0.024414062,0.8354492,0.62890625,0.84828705,0.40137684,0.8354492,0.62890625,3,-1,9,-2,-3,-3,-2,-14
19.133406043052673,false,0.029296875,0.83251953,0.6166992,0.8487311,0.40419254,0.83251953,0.6166992,9,8,-5,7,7,3,1,-3
19.163437962532043,false,0.025878906,0.84521484,0.6303711,0.8490383,0.40718436,0.84521484,0.6303711,23,-2,0,13,18,1,1,-2
19.166036009788513,false,0.015136719,0.8359375,0.60546875,0.84921616,0.41041684,0.8359375,0.60546875,-17,-6,-9,-13,-11,1,-1,-1
19.193029046058655,false,0.029296875,0.8261719,0.5917969,0.8496479,0.4133488,0.8261719,0.5917969,-3,-2,-7,4,3,0,-4,-3
19.22315800189972,false,0.028320312,0.8466797,0.60253906,0.849724,0.41653016,0.8466797,0.60253906,-3,3,-1,-5,-5,2,4,-9
19.252810955047607,false,0.010253906,0.8227539,0.5834961,0.8498158,0.4194451,0.8227539,0.5834961,-10,-4,1,-9,-8,-1,1,5
19.254987001419067,false,0.016601562,0.8286133,0.60546875,0.850028,0.42208412,0.8286133,0.60546875,1,2,-4,-2,-3,-2,3,-5
19.25642704963684,false,-0.0053710938,0.8125,0.5708008,0.850147,0.42482936,0.8125,0.5708008,9,-1,2,10,5,5,4,-10
19.283347964286804,false,0.016113281,0.8222656,0.578125,0.85016006,0.42739955,0.8222656,0.578125,-5,-2,1,-1,-2,-2,-2,2
19.313266038894653,false,0.019042969,0.8442383,0.6088867,0.85010886,0.429724,0.8442383,0.6088867,1,2,1,-5,-6,0,-2,-4
19.343217968940735,false,-0.012207031,0.81103516,0.56591797,0.84999466,0.4319555,0.81103516,0.56591797,6,-5,-7,7,1,0,-5,2
19.37342405319214,false,0.033691406,0.82958984,0.59765625,0.84964055,0.43422005,0.82958984,0.59765625,-2,0,0,-1,-1,-2,1,-3
19.375409960746765,false,0.009765625,0.81640625,0.56884766,0.8491169,0.43704098,0.81640625,0.56884766,2,1,-2,-2,-9,0,-2,-1
19.40313994884491,false,0.045410156,0.8071289,0.5629883,0.8483497,0.44013596,0.8071289,0.5629883,-4,1,10,5,-1,-5,-3,0
19.405761003494263,false,0.05859375,0.8847656,0.5839844,0.84694695,0.44434807,0.8847656,0.5839844,10,2,-8,0,1,-2,5,6
19.433761954307556,false,0.12841797,0.8388672,0.5234375,0.84532785,0.4483308,0.8388672,0.5234375,-10,1,6,3,-3,2,-2,-6
19.435816049575806,false,0.1328125,0.8276367,0.59521484,0.84451956,0.45064238,0.8276367,0.59521484,4,0,4,-1,-5,2,4,-8
19.467399954795837,false,0.09082031,0.87939453,0.5917969,0.8436723,0.45284364,0.87939453,0.5917969,-5,0,-1,0,-5,-3,-1,0
19.493895053863525,false,0.13476562,0.8178711,0.61376953,0.84428203,0.4526602,0.8178711,0.61376953,-2,-1,-4,-7,-6,-4,-1,3
19.526236057281494,false,0.2524414,0.81396484,0.63720703,0.8447568,0.45301914,0.81396484,0.63720703,-1,4,-3,-2,7,1,1,1
19.553815007209778,false,0.07470703,0.7050781,0.62060547,0.8453883,0.45278633,0.7050781,0.62060547,8,-2,-6,3,7,-3,2,30
19.613170981407166,false,0.09716797,0.77001953,0.6269531,0.84605783,0.4532736,0.77001953,0.6269531,5,-7,-6,2,-3,1,1,1
19.61447298526764,false,0.0703125,0.79541016,0.6542969,0.84632874,0.4531942,0.79541016,0.6542969,-15,-1,-4,-7,-11,1,1,-5
19.616266012191772,false,0.0859375,0.8208008,0.5859375,0.84629965,0.45431,0.8208008,0.5859375,-2,0,0,-4,-12,0,0,-1
19.643810987472534,false,0.123046875,0.82128906,0.65966797,0.8459744,0.45570308,0.82128906,0.65966797,0,0,-3,2,1,0,-3,-6
19.672893047332764,false,0.10058594,0.81689453,0.61572266,0.8452631,0.4577898,0.81689453,0.61572266,-9,1,5,-3,-6,-1,-1,-8
19.67514395713806,false,0.09033203,0.83935547,0.60253906,0.8445795,0.4603468,0.83935547,0.60253906,2,-3,-4,1,-2,-1,2,1
19.703729033470154,false,0.088378906,0.8652344,0.60009766,0.8436797,0.4634684,0.8652344,0.60009766,-1,-3,-3,-3,-4,0,0,3
19.73291003704071,false,0.12207031,0.88427734,0.6147461,0.8428338,0.466342,0.88427734,0.6147461,-2,1,17,-3,-5,-4,-1,4
19.735162019729614,false,0.08642578,0.82177734,0.6020508,0.8425746,0.46847,0.82177734,0.6020508,-5,-1,-14,-5,4,0,-3,-14
19.763726949691772,false,0.06738281,0.85791016,0.62939453,0.84221077,0.4712791,0.85791016,0.62939453,-4,8,14,5,-2,2,1,6
19.793127059936523,false,0.08984375,0.8720703,0.5957031,0.8417031,0.4744422,0.8720703,0.5957031,-1,1,-2,-8,1,-6,-1,7
19.796296000480652,false,0.09667969,0.8833008,0.59521484,0.842079,0.4764619,0.8833008,0.59521484,0,-10,-29,-2,-6,-4,-3,1
19.824198007583618,false,0.059570312,0.86816406,0.58447266,0.8427072,0.47854733,0.86816406,0.58447266,13,1,-4,-32,-13,1,4,11
19.853726983070374,false,0.04638672,0.8720703,0.5253906,0.8430628,0.4814101,0.8720703,0.5253906,-6,-3,-4,2,-9,-2,-4,-16
19.856621980667114,false,0.079589844,0.86328125,0.5371094,0.8427559,0.4850104,0.86328125,0.5371094,-5,-6,-2,-5,-5,1,-2,-6
19.88409698009491,false,0.06542969,0.8388672,0.52685547,0.84200627,0.4889679,0.8388672,0.52685547,3,2,6,10,19,1,1,-5
19.913758039474487,false,0.051757812,0.84765625,0.5107422,0.84087205,0.49386582,0.84765625,0.5107422,-3,0,6,2,8,7,0,-3
19.916298031806946,false,0.056152344,0.8364258,0.4814453,0.84034663,0.4976283,0.8364258,0.4814453,1,-2,-1,6,-5,-5,-4,1
19.943899989128113,false,0.076660156,0.8027344,0.47851562,0.8402267,0.5004372,0.8027344,0.47851562,-2,-2,-2,-4,2,3,1,-2
19.973302006721497,false,0.06982422,0.79248047,0.47460938,0.8400626,0.50325626,0.79248047,0.47460938,-1,2,-1,-1,-12,0,0,4
19.975782990455627,false,0.07861328,0.828125,0.4477539,0.83950716,0.50673175,0.828125,0.4477539,-3,-1,4,-6,0,-7,-2,-3
20.003658056259155,false,0.08886719,0.84716797,0.42529297,0.83901614,0.50978196,0.84716797,0.42529297,-9,-2,-1,-1,-5,1,0,-2
20.033041954040527,false,0.07763672,0.84277344,0.40429688,0.83902216,0.5114947,0.84277344,0.40429688,-1,0,0,-5,-4,-1,0,-1
20.035676956176758,false,0.060058594,0.82421875,0.42626953,0.8400619,0.51112974,0.82421875,0.42626953,4,1,-1,1,-3,-2,-1,-2
20.063727974891663,false,0.05126953,0.8154297,0.41308594,0.8426796,0.5080737,0.8154297,0.41308594,-1,0,2,6,11,5,2,6
20.093060970306396,false,0.068359375,0.8828125,0.36279297,0.8463078,0.5031457,0.8828125,0.36279297,-6,-3,-1,-2,3,-8,-4,-3
20.095659971237183,false,0.071777344,0.953125,0.34179688,0.85137427,0.49484453,0.953125,0.34179688,-6,-4,-3,-1,-1,1,1,-6
20.12413203716278,false,0.13232422,0.9189453,0.4946289,0.8604446,0.4779841,0.9189453,0.4946289,18,4,-1,16,6,6,0,17
20.153738021850586,false,0.12060547,0.921875,0.38916016,0.873277,0.4521728,0.921875,0.38916016,-3,3,1,-17,-13,2,1,6
20.15647006034851,false,-0.024414062,0.9628906,0.6010742,0.8879144,0.41987786,0.9628906,0.6010742,11,3,-2,14,15,1,-1,7
20.184262990951538,false,0.16455078,1.0541992,0.5,0.9028039,0.3825823,1.0541992,0.5,8,-8,-2,-20,-9,-2,18,4
20.213809967041016,false,0.056152344,0.95214844,0.8574219,0.9181112,0.33692154,0.95214844,0.8574219,2,0,-1,12,7,-3,-6,-23
20.216323018074036,false,0.053222656,0.64453125,1.0957031,0.9314871,0.29181832,0.64453125,1.0957031,15,5,-2,17,4,8,1,19
20.243661999702454,false,0.1015625,0.20361328,1.0766602,0.94107056,0.25537938,0.20361328,1.0766602,-14,3,-2,-20,-18,-15,13,-12
20.27341401576996,false,0.0073242188,0.14648438,1.0786133,0.94603205,0.23548561,0.14648438,1.0786133,-7,13,1,-8,0,-2,-25,-13
20.27578103542328,false,0.024902344,0.34814453,1.0029297,0.9488294,0.2250456,0.34814453,1.0029297,-3,-7,0,-6,0,-5,-3,0
20.303660035133362,false,-0.021484375,0.20654297,0.97509766,0.95104384,0.21748087,0.20654297,0.97509766,-12,-10,-1,-8,-6,-4,-6,-2
20.333088040351868,false,-0.1586914,0.2783203,1.0307617,0.9516231,0.21637507,0.2783203,1.0307617,4,-1,-4,2,7,5,-3,3
20.335790038108826,false,-0.22363281,0.37353516,0.9921875,0.9513619,0.22151239,0.37353516,0.9921875,-2,-6,-2,6,-3,2,0,-6
20.36377704143524,false,0.107421875,0.4477539,0.92626953,0.9491748,0.23486751,0.4477539,0.92626953,3,1,0,-4,-10,1,1,9
20.393761038780212,false,-0.13769531,0.60546875,0.8691406,0.9471837,0.24671458,0.60546875,0.8691406,-18,-7,0,-18,-12,-3,0,-5
20.39579999446869,false,-0.20263672,0.61621094,0.8569336,0.94558764,0.25586775,0.61621094,0.8569336,5,3,-1,6,5,0,-2,4
20.423797965049744,false,-0.107910156,0.5654297,0.80859375,0.9445796,0.26252905,0.5654297,0.80859375,2,-3,1,1,-2,0,-1,-3
20.453052043914795,false,-0.10253906,0.54248047,0.80615234,0.94354564,0.26851192,0.54248047,0.80615234,0,-2,-2,0,-1,-1,0,-2
20.45590901374817,false,-0.12548828,0.58203125,0.8066406,0.9426103,0.27387765,0.58203125,0.8066406,3,0,0,-2,1,0,1,1
20.512948036193848,false,-0.14013672,0.63720703,0.8178711,0.94136363,0.27979064,0.63720703,0.8178711,-3,-2,0,1,7,-2,0,-3
20.514660000801086,false,-0.17089844,0.6533203,0.81689453,0.93997437,0.2855935,0.6533203,0.81689453,-5,-1,-1,-10,-13,4,1,3
20.51686704158783,false,-0.1274414,0.6479492,0.8041992,0.93856734,0.29120797,0.6479492,0.8041992,1,0,-1,5,3,-6,-3,-2
20.543928027153015,false,-0.15771484,0.64404297,0.79589844,0.9371512,0.29628944,0.64404297,0.79589844,-1,-1,1,-4,-9,-1,-2,-3
20.573238015174866,false,-0.1538086,0.69140625,0.80615234,0.93598664,0.30060217,0.69140625,0.80615234,3,0,0,5,7,1,-1,1
20.57567596435547,false,-0.111328125,0.64941406,0.828125,0.93532836,0.30371925,0.64941406,0.828125,3,-2,-1,4,0,-2,-2,2
20.603772044181824,false,-0.10986328,0.60546875,0.8461914,0.9343953,0.30727372,0.60546875,0.8461914,-3,-2,-3,1,8,1,-2,-4
20.63327395915985,false,-0.14550781,0.58154297,0.8540039,0.932845,0.31275913,0.58154297,0.8540039,3,-1,-10,-11,-6,-9,0,-2
20.635768055915833,false,-0.12792969,0.5263672,0.8623047,0.9304162,0.32112575,0.5263672,0.8623047,5,-4,-13,1,0,3,-2,-3
20.663805961608887,false,-0.11035156,0.5683594,0.875,0.9262605,0.3346135,0.5683594,0.875,6,1,6,5,-1,-3,-2,-6
20.693019032478333,false,-0.1352539,0.66259766,0.8779297,0.9196692,0.35426828,0.66259766,0.8779297,0,-2,-5,-10,22,8,3,1
20.72426402568817,false,-0.18652344,0.8017578,0.8564453,0.9116529,0.3769663,0.8017578,0.8564453,2,8,6,7,-7,-1,0,0
20.726711988449097,false,-0.12597656,0.8520508,0.8198242,0.90332365,0.3995036,0.8520508,0.8198242,-3,-5,-3,-7,1,-3,-1,0
20.75318706035614,false,-0.14257812,0.9638672,0.8256836,0.8955438,0.4198777,0.9638672,0.8256836,32,4,-10,12,10,16,6,22
20.756168007850647,false,-0.16259766,1.1274414,0.92041016,0.8905028,0.43417278,1.1274414,0.92041016,10,1,10,-4,-17,-7,-2,11
20.784569025039673,true,-0.053710938,1.1987305,0.97021484,0.8858881,0.44587383,1.1987305,0.97021484,-28,3,25,-13,-9,-6,-5,-15
20.813708066940308,true,-0.040039062,1.2675781,0.9838867,0.88272,0.4538116,1.2675781,0.9838867,5,-13,-21,-1,-1,0,1,-2
20.81583595275879,true,-0.0107421875,1.3305664,0.9838867,0.8807106,0.45851398,1.3305664,0.9838867,-25,3,18,-7,4,-3,-7,-9
20.843881964683533,true,0.07714844,1.3256836,0.88671875,0.87963057,0.45925617,1.3256836,0.88671875,-9,-13,-13,-6,-11,2,8,-1
20.87377905845642,true,0.15429688,1.2807617,0.7636719,0.8789313,0.4559456,1.2807617,0.7636719,-3,27,37,12,-13,-8,-11,-19
20.876041054725647,true,0.203125,1.3500977,0.67529297,0.8770382,0.4504518,1.3500977,0.67529297,7,-11,-24,4,-3,2,8,14
20.90751802921295,true,0.20361328,1.3232422,0.49902344,0.87275946,0.44269702,1.3232422,0.49902344,4,11,6,-16,-13,0,-2,-4
20.933887004852295,true,0.26416016,1.2314453,0.3720703,0.8675398,0.42781866,1.2314453,0.3720703,-29,-11,18,-4,-5,-2,-3,0
20.936362981796265,true,0.26123047,1.0541992,0.24902344,0.86119103,0.4059665,1.0541992,0.24902344,-12,-10,7,20,3,-2,-2,-1
20.963958024978638,true,0.25830078,0.72216797,0.08984375,0.85349876,0.3752025,0.72216797,0.08984375,19,21,-5,-14,-1,-3,4,13
20.993170022964478,true,0.33496094,0.44970703,0.05419922,0.845169,0.33478385,0.44970703,0.05419922,11,12,18,22,9,-4,-5,-13
20.99600100517273,true,0.36035156,0.09716797,0.028808594,0.8342959,0.29132304,0.09716797,0.028808594,0,-7,-4,6,19,3,9,6
21.023805975914,true,0.49365234,-0.17578125,-0.00390625,0.8197922,0.2526945,-0.17578125,-0.00390625,9,1,-22,-50,-17,-5,-13,-14
21.05302405357361,true,0.5942383,-0.3095703,0.0068359375,0.80396485,0.22125514,-0.3095703,0.0068359375,-2,8,7,6,4,-7,1,-9
21.055688977241516,true,0.65722656,-0.41796875,0.03857422,0.78809315,0.19568051,-0.41796875,0.03857422,-9,13,6,2,8,3,-5,28
21.08371603488922,true,0.52783203,-0.40771484,0.12402344,0.7742402,0.1762106,-0.40771484,0.12402344,9,-8,-4,0,11,10,6,2
21.113749027252197,true,0.51708984,-0.38183594,0.0043945312,0.76310307,0.16266756,-0.38183594,0.0043945312,-15,0,6,16,-5,-20,-7,7
21.115875959396362,true,0.5839844,-0.4033203,-0.045898438,0.75410134,0.15466554,-0.4033203,-0.045898438,3,-13,-10,9,-7,8,8,-10
21.143826961517334,true,0.5908203,-0.32421875,-0.0078125,0.7492314,0.15698762,-0.32421875,-0.0078125,1,-14,-6,-33,-25,7,1,30
21.17385196685791,true,0.5839844,-0.23730469,0.018554688,0.74838996,0.16828245,-0.23730469,0.018554688,18,-16,-19,-2,-8,-2,-2,-14
21.176274061203003,true,0.5996094,-0.16015625,-0.0029296875,0.7496126,0.18531258,-0.16015625,-0.0029296875,-7,20,20,12,4,9,3,1
21.203907012939453,true,0.67822266,-0.22216797,-0.045898438,0.7533748,0.20416744,-0.22216797,-0.045898438,-5,-10,-18,-13,1,2,-3,-15
21.233046054840088,true,0.7709961,-0.47851562,-0.013671875,0.76139283,0.22150831,-0.47851562,-0.013671875,-24,-16,-11,-31,-5,0,-3,14
21.235857009887695,true,0.79003906,-0.7285156,0.19384766,0.77549475,0.23542568,-0.7285156,0.19384766,44,9,2,52,32,6,9,-28
21.264088034629822,true,0.7109375,-0.75,0.43652344,0.79525286,0.24701728,-0.75,0.43652344,5,1,-3,-3,-8,-15,-38,76
21.293244004249573,true,0.70947266,-0.46289062,0.6171875,0.81777966,0.25995845,-0.46289062,0.6171875,-26,6,1,-63,16,-21,8,-104
21.29629695415497,true,0.6894531,-0.24072266,0.8544922,0.84010464,0.27460262,-0.24072266,0.8544922,98,-6,-17,19,-5,2,5,16
21.32511603832245,true,0.6069336,-0.37353516,1.0688477,0.8603918,0.2910292,-0.37353516,1.0688477,-60,-9,20,31,-38,-14,46,-16
21.35347306728363,true,0.6123047,-0.24853516,1.6455078,0.8729598,0.32410967,-0.24853516,1.6455078,28,-81,-43,39,119,41,-48,107
21.356184005737305,true,0.31396484,-0.44335938,1.3144531,0.8701481,0.38062876,-0.44335938,1.3144531,29,124,-14,97,-17,-23,-22,-81
21.38387095928192,true,-0.33203125,0.6958008,-0.5517578,0.846591,0.46278682,0.6958008,-0.5517578,-122,-51,53,-76,122,-17,-4,-31
21.413352012634277,true,-1.2050781,3.5146484,-0.69628906,0.8262651,0.51869696,3.5146484,-0.69628906,-99,65,-21,-120,-128,121,-14,-50
21.415884971618652,true,-1.6835938,4.7197266,0.2548828,0.8068719,0.5452596,4.7197266,0.2548828,59,-117,-2,26,-31,-124,9,-103
21.443915009498596,true,-0.37939453,0.6040039,-0.014160156,0.8327884,0.5030056,0.6040039,-0.014160156,127,68,6,39,92,127,19,127
21.473798036575317,true,0.5966797,0.6933594,0.1015625,0.85976416,0.45972908,0.6933594,0.1015625,49,83,-7,54,27,-128,5,127
21.475965976715088,true,1.4580078,0.43603516,0.26513672,0.87914896,0.42153737,0.43603516,0.26513672,-128,-128,-6,-59,100,127,-3,-118
21.50392496585846,true,0.93847656,-0.055664062,0.7583008,0.8830841,0.40491983,-0.055664062,0.7583008,125,30,28,4,-76,-104,1,34
21.53337800502777,true,-0.061035156,0.38378906,0.7998047,0.8801721,0.41225258,0.38378906,0.7998047,5,105,6,15,-74,2,26,110
21.53584098815918,true,-0.010253906,0.7841797,0.55566406,0.8735632,0.42933506,0.7841797,0.55566406,-4,-12,-3,7,-41,10,-5,-27
21.563804984092712,true,0.32763672,0.98535156,0.42138672,0.8681861,0.44172263,0.98535156,0.42138672,-41,-48,-7,-19,-23,-13,-13,-50
21.593229055404663,true,0.38720703,0.92578125,0.4951172,0.8675958,0.44417438,0.92578125,0.4951172,-6,13,15,13,2,9,6,13
21.595823049545288,true,0.3618164,0.7714844,0.49267578,0.870331,0.43946862,0.7714844,0.49267578,-7,-18,-15,12,-7,4,-3,27
21.624892950057983,true,0.2861328,0.6455078,0.5209961,0.8736547,0.43392798,0.6455078,0.5209961,-11,-28,-22,-6,-1,4,6,38
21.653285026550293,true,0.28515625,0.66015625,0.53808594,0.8751571,0.4320852,0.66015625,0.53808594,9,-8,-3,3,-2,7,0,-22
21.655959010124207,true,0.32080078,0.72509766,0.51660156,0.87508035,0.43354228,0.72509766,0.51660156,-14,47,27,7,6,-8,-6,-39
21.714589953422546,false,0.3227539,0.78222656,0.4970703,0.87445515,0.43634257,0.78222656,0.4970703,0,-18,-20,-9,-4,1,-1,2
21.71617305278778,false,0.29638672,0.7841797,0.5004883,0.8741118,0.43861234,0.7841797,0.5004883,-7,-11,0,3,-2,-1,-3,1
21.74403703212738,false,0.25634766,0.77685547,0.5004883,0.873549,0.44306123,0.77685547,0.5004883,4,19,12,7,-1,9,6,-24
21.773301005363464,false,0.28857422,0.8041992,0.48583984,0.8725635,0.44644487,0.8041992,0.48583984,1,-1,0,4,-2,1,-1,-2
21.775362968444824,false,0.31103516,0.8100586,0.4711914,0.871618,0.44954246,0.8100586,0.4711914,1,0,4,-3,2,-1,1,5
21.80320906639099,false,0.2890625,0.7885742,0.47558594,0.8711254,0.45179865,0.7885742,0.47558594,7,-4,-11,1,4,4,-2,5
21.83315098285675,false,0.24707031,0.7729492,0.45654297,0.87071884,0.45412883,0.7729492,0.45654297,5,-3,-8,-4,-3,3,-1,4
21.834673047065735,false,0.23779297,0.8125,0.45410156,0.870039,0.4571764,0.8125,0.45410156,-3,-4,-11,-9,-4,-1,-1,9
21.863505959510803,false,0.25830078,0.8144531,0.45410156,0.86916775,0.4604636,0.8144531,0.45410156,0,1,-1,-4,1,0,1,-3
21.892982006072998,false,0.265625,0.8388672,0.47460938,0.86806375,0.464184,0.8388672,0.47460938,-3,-5,-4,-5,-12,-5,-1,-2
21.894876956939697,false,0.24609375,0.82470703,0.4555664,0.866982,0.46773326,0.82470703,0.4555664,-3,0,4,-2,-13,-3,-5,-3
21.923766016960144,false,0.20214844,0.8183594,0.42626953,0.8657605,0.47163928,0.8183594,0.42626953,-13,-2,7,-10,-8,-1,-6,-9
21.95291495323181,false,0.16015625,0.8129883,0.40722656,0.86429965,0.47603622,0.8129883,0.40722656,1,1,1,3,5,1,1,-1
21.95456898212433,false,0.15234375,0.83203125,0.39697266,0.862458,0.48115757,0.83203125,0.39697266,4,-2,-7,2,-1,1,-1,0
21.983651995658875,false,0.17675781,0.83935547,0.38330078,0.86031216,0.48676762,0.83935547,0.38330078,-2,-1,3,-9,-16,0,4,5
22.013272047042847,false,0.24658203,0.7993164,0.3540039,0.8585144,0.49166965,0.7993164,0.3540039,3,1,-4,-1,2,0,-1,-2
22.015599012374878,false,0.28710938,0.79833984,0.3178711,0.8568797,0.4964641,0.79833984,0.3178711,-2,-3,-4,-8,-2,0,0,-5
22.043310046195984,false,0.29492188,0.80566406,0.31591797,0.855082,0.50161064,0.80566406,0.31591797,-2,-1,0,-6,-15,-2,-1,0
22.073328971862793,false,0.3149414,0.81933594,0.31103516,0.85303885,0.5069038,0.81933594,0.31103516,-4,0,-2,-10,-12,2,0,0
22.074687957763672,false,0.3388672,0.8417969,0.35351562,0.85152006,0.51093644,0.8417969,0.35351562,-6,-1,0,-3,-4,-1,-1,1
22.10316300392151,false,0.32763672,0.8774414,0.43164062,0.8509157,0.5128932,0.8774414,0.43164062,-5,1,2,-4,10,-3,-11,-3
22.133108019828796,false,0.26123047,0.9370117,0.50683594,0.8515827,0.51215816,0.9370117,0.50683594,7,-2,-2,3,1,-3,-7,2
22.134557008743286,false,0.14794922,1.0185547,0.65966797,0.8541143,0.5074756,1.0185547,0.65966797,-2,0,0,-8,-12,-5,-5,-2
22.163519024848938,false,0.071777344,1.0136719,0.73046875,0.8590553,0.49795175,1.0136719,0.73046875,6,3,-3,-1,-2,1,4,1
22.19266104698181,false,0.11767578,0.9399414,0.7104492,0.8659331,0.48481756,0.9399414,0.7104492,8,3,-3,4,3,22,20,8
22.194653034210205,false,0.20361328,0.8652344,0.6430664,0.8729942,0.47070763,0.8652344,0.6430664,0,-5,0,7,-5,-4,-10,0
22.22375500202179,false,0.21289062,0.8496094,0.5859375,0.8795193,0.45614877,0.8496094,0.5859375,-11,-1,1,-11,-6,1,3,5
22.253077030181885,false,0.020507812,0.63964844,0.23583984,0.887517,0.43802077,0.63964844,0.23583984,-2,2,-1,11,23,-6,35,8
22.254502058029175,false,-0.05126953,1.1879883,0.8886719,0.8945755,0.41908813,1.1879883,0.8886719,-32,-11,-1,-17,-13,-25,-15,53
22.28319501876831,false,-0.32080078,1.2983398,0.9760742,0.9030468,0.39143217,1.2983398,0.9760742,38,0,-1,-19,6,-40,-2,-52
22.31291902065277,false,-0.24511719,0.9116211,1.206543,0.9174542,0.3509044,0.9116211,1.206543,-77,2,0,24,3,15,-29,-73
22.31493902206421,false,0.0,0.29248047,1.0449219,0.9310296,0.31331378,0.29248047,1.0449219,11,0,-1,15,4,-93,5,66
22.343291997909546,false,-0.0078125,0.0073242188,1.0322266,0.93643665,0.2947499,0.0073242188,1.0322266,0,2,0,-38,-32,65,-2,-22
22.373291969299316,false,-0.04296875,0.2548828,0.8652344,0.9369891,0.29426256,0.2548828,0.8652344,26,3,-1,7,5,-9,-2,5
22.37462306022644,false,-0.019042969,0.5722656,0.76123047,0.933805,0.30561224,0.5722656,0.76123047,5,-3,-1,-8,-10,18,-5,-7
22.403205037117004,false,0.03515625,0.7753906,0.86376953,0.9310505,0.31409374,0.7753906,0.86376953,22,-1,-1,14,19,5,4,7
22.433542013168335,false,-0.103027344,0.7597656,0.7573242,0.931744,0.31342977,0.7597656,0.7573242,-4,-16,-2,-1,-10,17,-1,2
22.435330033302307,false,-0.0107421875,0.52685547,0.7294922,0.93261695,0.31221518,0.52685547,0.7294922,-2,2,-1,-12,-13,-18,0,-5
22.463832020759583,false,0.107910156,0.93408203,0.69873047,0.92982453,0.31928003,0.93408203,0.69873047,14,8,0,10,18,-17,-1,36
22.493186950683594,false,-0.140625,0.8208008,0.67089844,0.92923874,0.3197768,0.8208008,0.67089844,-16,-2,-2,-20,-10,16,-1,-80
22.495468020439148,false,-0.041503906,0.8339844,0.72753906,0.9306068,0.31575686,0.8339844,0.72753906,8,11,0,6,0,1,-2,-15
22.52332603931427,false,-0.026855469,0.7211914,0.7495117,0.9328769,0.3073983,0.7211914,0.7495117,-2,-2,0,-5,-6,2,1,33
22.552890062332153,false,-0.059570312,0.61572266,0.81591797,0.9363159,0.29542172,0.61572266,0.81591797,-4,-4,0,-6,-11,4,-1,9
22.554579973220825,false,-0.06298828,0.5620117,0.86816406,0.94021535,0.2820524,0.5620117,0.86816406,0,5,0,-3,1,5,0,1
22.583062052726746,false,-0.06201172,0.5053711,0.9321289,0.94336873,0.27044946,0.5053711,0.9321289,2,-6,-1,0,-1,7,0,3
22.612915992736816,false,-0.059570312,0.4584961,0.9633789,0.94567496,0.26161253,0.4584961,0.9633789,-4,-2,0,-5,-8,-5,0,-4
22.6146639585495,false,-0.057617188,0.45263672,0.96875,0.9468718,0.25715017,0.45263672,0.96875,-4,-5,-1,-2,-5,0,0,-1
22.643208980560303,false,-0.05517578,0.4658203,0.9511719,0.9471428,0.256364,0.4658203,0.9511719,0,0,0,-5,-4,-2,1,1
22.673524022102356,false,-0.051757812,0.4946289,0.9169922,0.946668,0.25862613,0.4946289,0.9169922,-4,1,-2,-3,1,-1,-1,0
22.675191044807434,false,-0.04638672,0.5258789,0.8901367,0.94561535,0.2631389,0.5258789,0.8901367,-5,-2,-2,-2,-1,1,-3,3
22.7034729719162,false,-0.03955078,0.5908203,0.85009766,0.9439881,0.26965857,0.5908203,0.85009766,-2,0,1,-2,-3,13,-4,0
22.73344600200653,false,-0.03173828,0.58203125,0.7651367,0.9423857,0.27467683,0.58203125,0.7651367,-3,-4,0,-4,-2,1,1,2
22.736119985580444,false,-0.016601562,0.60058594,0.8203125,0.94088966,0.28003904,0.60058594,0.8203125,4,-1,-2,4,6,-5,0,0
22.763758063316345,false,-0.014160156,0.65234375,0.7973633,0.93934023,0.28487235,0.65234375,0.7973633,-2,-4,-1,1,-2,0,-1,1
22.793609976768494,false,-0.0078125,0.6357422,0.82958984,0.93863195,0.2866313,0.6357422,0.82958984,3,1,-2,0,-1,-4,-1,-2
22.824087977409363,false,0.009765625,0.58935547,0.85498047,0.9382804,0.28712407,0.58935547,0.85498047,2,-8,0,-2,3,4,1,-3
22.826213002204895,false,0.037597656,0.5942383,0.86328125,0.9377125,0.28809497,0.5942383,0.86328125,-1,2,-2,-1,0,2,-1,3
22.85333800315857,false,0.049804688,0.58935547,0.8676758,0.9369437,0.2897506,0.58935547,0.8676758,3,54,-3,-1,3,3,-1,-2
22.855265974998474,false,0.061523438,0.57910156,0.8671875,0.93593115,0.29224196,0.57910156,0.8671875,-1,-16,-2,-6,-3,-1,-1,2
22.883138060569763,false,0.07910156,0.5629883,0.86083984,0.9347149,0.2954783,0.5629883,0.86083984,-7,-15,-2,-3,-1,-3,-2,2
22.91358506679535,false,-0.032226562,0.6201172,0.9160156,0.93520653,0.2945638,0.6201172,0.9160156,8,2,-3,1,7,-10,0,-35
22.91549503803253,false,0.12841797,0.57373047,0.83984375,0.9354988,0.29376626,0.57373047,0.83984375,-4,-4,1,-7,-3,-6,0,30
22.94328999519348,false,0.1640625,0.49804688,0.81933594,0.93508255,0.2953567,0.49804688,0.81933594,4,-1,-1,4,3,8,-2,-2
22.973248958587646,false,0.114746094,0.6074219,0.828125,0.9341023,0.29871252,0.6074219,0.828125,0,-8,-1,0,-4,-2,0,1
22.975152015686035,false,0.08105469,0.6010742,0.84277344,0.9335124,0.3006723,0.6010742,0.84277344,-7,-5,1,-10,-4,-4,-1,0
23.003090023994446,false,0.072753906,0.5605469,0.8300781,0.9326731,0.30324084,0.5605469,0.8300781,-9,-34,-1,-6,-8,-2,-1,-2
23.03318202495575,false,0.05078125,0.60009766,0.81152344,0.9312027,0.3075728,0.60009766,0.81152344,-2,13,-1,-6,-2,-1,0,-2
23.035261034965515,false,0.0073242188,0.65283203,0.8076172,0.9293832,0.3126429,0.65283203,0.8076172,-1,25,-2,3,-4,-3,1,-3
23.063791036605835,false,-0.015136719,0.69140625,0.8022461,0.9274018,0.31788263,0.69140625,0.8022461,-5,-23,-1,1,-18,3,-2,0
23.093456029891968,false,-0.03515625,0.6928711,0.7788086,0.9255678,0.32270357,0.6928711,0.7788086,2,3,-1,3,15,11,-2,0
23.096053957939148,false,-0.027832031,0.71972656,0.7504883,0.9237811,0.32739753,0.71972656,0.7504883,1,27,-2,0,2,-4,1,3
23.1231210231781,false,0.088378906,0.87109375,0.67333984,0.92191523,0.33058083,0.87109375,0.67333984,7,9,-1,13,10,4,-1,3
23.153341054916382,false,0.05078125,0.6640625,0.8354492,0.9222998,0.32942766,0.6640625,0.8354492,-4,-10,-2,-5,-2,-6,-2,-9
23.155397057533264,false,0.03466797,0.71533203,0.77441406,0.9217477,0.3302202,0.71533203,0.77441406,1,-7,-1,-5,-4,0,-1,0
23.183150053024292,false,0.057617188,0.7089844,0.7714844,0.9221707,0.3286927,0.7089844,0.7714844,-1,-6,-1,-3,-1,-5,0,-1
23.213456988334656,false,0.0703125,0.62109375,0.78564453,0.92330676,0.32508308,0.62109375,0.78564453,4,-3,0,4,3,9,-2,2
23.21546995639801,false,0.095703125,0.5991211,0.81640625,0.9243674,0.32155094,0.5991211,0.81640625,5,-1,-1,-3,4,2,-1,-4
23.24319100379944,false,0.078125,0.6376953,0.8618164,0.92529434,0.3184419,0.6376953,0.8618164,2,0,0,-4,0,-1,0,-1
23.27326798439026,false,0.030273438,0.6098633,0.8696289,0.9260956,0.31600296,0.6098633,0.8696289,6,-1,-2,4,3,1,1,1
23.275290966033936,false,0.044921875,0.5620117,0.8383789,0.9263828,0.3150202,0.5620117,0.8383789,-1,0,-1,-4,3,-1,-1,-1
23.303097009658813,false,0.078125,0.5473633,0.828125,0.9264377,0.31483498,0.5473633,0.828125,2,-2,0,-3,2,-2,0,0
23.333112955093384,false,0.060546875,0.5678711,0.8256836,0.92655575,0.31471157,0.5678711,0.8256836,5,2,-1,1,0,1,-1,0
23.33520805835724,false,0.05859375,0.61572266,0.8076172,0.92622614,0.31598502,0.61572266,0.8076172,1,-3,0,-5,-3,-2,0,0
23.363780975341797,false,0.04345703,0.66503906,0.8120117,0.92557263,0.3181885,0.66503906,0.8120117,-8,1,2,-15,-5,0,1,1
23.42312204837799,false,0.0048828125,0.6669922,0.8300781,0.92479634,0.32081905,0.6669922,0.8300781,-8,-3,-4,3,-7,-2,-2,-4
23.426458954811096,false,0.013671875,0.62597656,0.8305664,0.92391205,0.3237385,0.62597656,0.8305664,-6,2,0,3,-6,1,-1,0
23.429332971572876,false,0.07080078,0.6020508,0.80126953,0.922659,0.3274719,0.6020508,0.80126953,7,-1,-5,-3,2,-2,0,1
23.45336604118347,false,0.057617188,0.6660156,0.82958984,0.9212507,0.33155993,0.6660156,0.82958984,0,2,4,-1,-4,-4,-1,-4
23.45519995689392,false,0.026855469,0.6303711,0.83496094,0.9200775,0.3352173,0.6303711,0.83496094,-3,-2,-4,-4,19,1,-1,-2
23.483052015304565,false,0.05419922,0.6142578,0.82421875,0.9182336,0.34095007,0.6142578,0.82421875,1,-1,-1,-1,-1,-1,-1,3
23.513309001922607,false,0.068359375,0.67578125,0.7919922,0.9155675,0.34877017,0.67578125,0.7919922,0,-2,0,-6,-1,0,0,1
23.51527202129364,false,0.068847656,0.68115234,0.76660156,0.91270983,0.35689256,0.68115234,0.76660156,-4,3,0,-4,16,2,-3,-6
23.543238043785095,false,0.083496094,0.7207031,0.7338867,0.9093784,0.36621723,0.7207031,0.7338867,-2,-1,6,3,-1,-5,0,1
23.57311999797821,false,0.076660156,0.72216797,0.7314453,0.9064248,0.37392312,0.72216797,0.7314453,-2,-2,-8,-5,5,2,3,0
23.575988054275513,false,0.06640625,0.6948242,0.7260742,0.903501,0.38125032,0.6948242,0.7260742,0,-2,-8,-8,-20,-1,1,0
23.603901982307434,false,0.064941406,0.765625,0.7006836,0.90009147,0.38979954,0.765625,0.7006836,-1,3,7,3,-2,8,1,5
23.633092999458313,false,0.038085938,0.8017578,0.6894531,0.8970675,0.3971097,0.8017578,0.6894531,-1,1,-1,6,-7,-9,-5,-5
23.635861992836,false,0.06640625,0.7636719,0.6772461,0.89445484,0.4032188,0.7636719,0.6772461,9,1,-15,2,-17,-25,-7,15
23.663867950439453,false,0.095703125,0.7495117,0.6635742,0.89178795,0.4092092,0.7495117,0.6635742,1,-6,-10,-9,-1,8,4,-2
23.693135023117065,false,0.05810547,0.81689453,0.6777344,0.88903713,0.41525024,0.81689453,0.6777344,-2,2,12,5,9,1,-3,-1
23.696115970611572,false,0.053710938,0.7885742,0.67626953,0.8870193,0.41976544,0.7885742,0.67626953,10,0,-16,-1,-12,1,-1,-1
23.723953008651733,false,0.080566406,0.7290039,0.6669922,0.8850072,0.42446652,0.7290039,0.6669922,3,-5,-12,-10,-9,7,-4,-3
23.75311005115509,false,0.057128906,0.8486328,0.67285156,0.8821111,0.4311675,0.8486328,0.67285156,-15,0,15,3,1,-5,-9,-6
23.755869030952454,false,0.03173828,0.8339844,0.69677734,0.8794872,0.43714952,0.8339844,0.69677734,-5,1,0,-6,-5,-2,2,-4
23.81369197368622,false,0.0234375,0.7241211,0.7373047,0.87655586,0.44367972,0.7241211,0.7373047,-5,-4,8,-7,17,18,9,1
23.84443998336792,false,0.03955078,0.74072266,0.73095703,0.87133014,0.455167,0.74072266,0.73095703,-17,-3,8,-1,-4,0,-8,-2
23.87317204475403,false,0.08642578,1.128418,0.66552734,0.84809595,0.5037668,1.128418,0.66552734,-20,-2,9,-1,12,9,12,2
23.87569499015808,false,0.18798828,1.1513672,0.69140625,0.84298015,0.51350313,1.1513672,0.69140625,-107,-50,17,12,-15,-38,-36,21
23.90374195575714,false,0.16699219,0.9794922,0.63916016,0.83866954,0.52108604,0.9794922,0.63916016,65,8,-1,-7,-1,2,27,42
23.933112025260925,false,0.10888672,1.0571289,0.64208984,0.8343251,0.52907526,1.0571289,0.64208984,-23,-24,-24,-46,-28,-35,-18,-27
23.93578600883484,false,0.20117188,1.2094727,0.5776367,0.82949835,0.536885,1.2094727,0.5776367,9,-9,-19,-47,-32,3,-8,14
23.963795065879822,false,0.22021484,1.2802734,0.54296875,0.827049,0.53974867,1.2802734,0.54296875,59,48,18,32,41,26,14,-24
23.99336302280426,false,0.18066406,1.2587891,0.56884766,0.82952154,0.5348247,1.2587891,0.56884766,7,-30,-15,16,40,17,-5,-1
23.996237993240356,false,0.22070312,1.1899414,0.49169922,0.83322847,0.5263909,1.1899414,0.49169922,-44,-4,-4,-3,-4,-9,5,22
24.02386701107025,false,0.20996094,1.2045898,0.5234375,0.8356693,0.51857764,1.2045898,0.5234375,69,4,-22,20,-9,10,-3,-10
24.0534770488739,false,0.2783203,1.2163086,0.5253906,0.8344871,0.5127652,1.2163086,0.5253906,38,16,11,8,1,-2,-8,-21
24.055853009223938,false,0.2915039,1.2802734,0.5019531,0.83217156,0.5057484,1.2802734,0.5019531,-46,-12,18,-8,25,-3,0,17
24.083788990974426,false,0.36035156,1.1630859,0.3935547,0.8308344,0.4936055,1.1630859,0.3935547,-16,11,-21,-29,-34,-23,-2,-6
24.113365054130554,false,0.4477539,1.0600586,0.3701172,0.82817614,0.4789114,1.0600586,0.3701172,-21,-19,-3,-27,-12,7,-2,-8
24.14597499370575,true,0.48779297,1.0078125,0.35107422,0.82358813,0.46163172,1.0078125,0.35107422,-22,7,43,31,2,-1,-11,-30
24.15017795562744,true,0.4951172,0.7988281,0.35498047,0.8182453,0.4390912,0.7988281,0.35498047,-7,11,20,-1,0,-8,-3,5
24.17298197746277,true,0.48828125,0.60839844,0.30419922,0.81088054,0.41444328,0.60839844,0.30419922,-12,21,11,16,2,7,1,2
24.175441026687622,true,0.5205078,0.41455078,0.21484375,0.80080014,0.38923037,0.41455078,0.21484375,-14,-30,1,15,3,3,-6,-26
24.203511953353882,true,0.56933594,0.2705078,0.1459961,0.78855276,0.36354363,0.2705078,0.1459961,13,7,-9,15,0,3,-2,-9
24.2328040599823,true,0.54248047,0.14648438,0.09375,0.7757679,0.3361254,0.14648438,0.09375,-11,-12,-13,6,7,1,-7,-8
24.235650062561035,true,0.5722656,0.05810547,0.122558594,0.7634267,0.30664024,0.05810547,0.122558594,-14,1,2,-10,1,-3,-3,5
24.263543009757996,true,0.54589844,-0.10644531,0.091308594,0.7518575,0.27668208,-0.10644531,0.091308594,12,1,0,-3,-5,4,4,-4
24.293307065963745,true,0.5966797,-0.2578125,0.13378906,0.740985,0.248114,-0.2578125,0.13378906,10,-6,3,-11,-2,19,16,11
24.296035051345825,true,0.6333008,-0.39990234,0.09814453,0.7311831,0.22321868,-0.39990234,0.09814453,5,10,-6,7,6,-2,-3,0
24.323713064193726,true,0.64697266,-0.40722656,0.103515625,0.72348213,0.2034393,-0.40722656,0.103515625,-14,-7,-7,-9,-9,-5,-2,9
24.353639960289,true,0.6430664,-0.3779297,0.107910156,0.7174864,0.18439187,-0.3779297,0.107910156,-21,-18,-15,-4,16,6,-1,-1
24.35684299468994,true,0.6274414,-0.2944336,0.19189453,0.7156506,0.16858226,-0.2944336,0.19189453,13,10,5,3,6,-13,5,2
24.383926033973694,true,0.5859375,-0.31347656,0.2211914,0.7163184,0.15393278,-0.31347656,0.2211914,3,-5,-5,7,-5,-4,-3,5
24.413249969482422,true,0.59277344,-0.41455078,0.2578125,0.718447,0.14215133,-0.41455078,0.2578125,-27,-11,-8,-18,-3,10,-3,-11
24.416013956069946,true,0.6044922,-0.38232422,0.22363281,0.7213342,0.13971348,-0.38232422,0.22363281,22,5,3,7,0,12,-1,7
24.44512403011322,true,0.6660156,-0.37451172,0.15625,0.7246311,0.14362001,-0.37451172,0.15625,-1,-5,-1,-9,-11,-12,-3,-10
24.47339904308319,true,0.6821289,-0.42919922,0.12011719,0.729633,0.15051655,-0.42919922,0.12011719,3,2,3,-1,-2,1,4,-12
24.476047039031982,true,0.6972656,-0.49658203,0.03857422,0.738368,0.16248125,-0.49658203,0.03857422,24,4,0,4,3,3,0,10
24.503854036331177,true,0.7573242,-0.50683594,0.027832031,0.75008804,0.17798492,-0.50683594,0.027832031,4,-1,3,0,-9,5,-4,-5
24.53334403038025,true,0.7919922,-0.5395508,0.15820312,0.76527876,0.1936696,-0.5395508,0.15820312,-4,-2,0,-9,-9,-24,-8,4
24.53583800792694,true,0.74902344,-0.56347656,0.27294922,0.78351766,0.2081934,-0.56347656,0.27294922,5,-5,-7,-14,-6,-2,1,6
24.563873052597046,true,0.79345703,-0.4584961,0.38964844,0.8043278,0.22265805,-0.4584961,0.38964844,20,1,-3,-27,-18,5,2,13
24.593253016471863,true,0.8173828,-0.35888672,0.44970703,0.8262973,0.23730566,-0.35888672,0.44970703,63,29,23,17,10,-21,20,16
24.595854997634888,true,0.77734375,-0.32226562,0.58203125,0.8477308,0.25293374,-0.32226562,0.58203125,10,-11,-13,7,-32,-53,83,79
24.624744057655334,true,0.6660156,-0.11376953,0.91748047,0.8648735,0.27954274,-0.11376953,0.91748047,-77,-11,14,30,33,46,-89,-122
24.653342962265015,true,0.4892578,0.2368164,1.2016602,0.8731337,0.3234959,0.2368164,1.2016602,38,6,-30,-74,-70,-49,-42,-80
24.655976057052612,true,0.31933594,0.84765625,1.5986328,0.8704183,0.37969795,0.84765625,1.5986328,121,89,41,83,66,-21,-44,-40
24.683809995651245,true,0.020996094,-0.11035156,-0.07324219,0.8580775,0.43325043,-0.11035156,-0.07324219,-93,-83,-21,87,4,18,-11,38
24.713667035102844,true,-0.7832031,2.255371,-0.23291016,0.8299391,0.505398,2.255371,-0.23291016,45,27,91,22,-82,57,31,-107
24.715864062309265,true,-1.8222656,4.5751953,-0.42919922,0.8111891,0.5365201,4.5751953,-0.42919922,-41,-47,-48,-128,-19,-86,21,116
24.743844985961914,true,-0.2861328,2.378418,0.82910156,0.8144946,0.52322,2.378418,0.82910156,-128,-61,-5,-14,127,117,27,65
24.773437976837158,true,0.56396484,0.9194336,0.02734375,0.8431941,0.4789738,0.9194336,0.02734375,127,115,-14,67,-116,127,-15,115
24.77603304386139,true,1.8457031,0.14550781,0.5605469,0.86663055,0.43856463,0.14550781,0.5605469,73,-15,16,-8,127,-128,11,-118
24.80383801460266,true,1.1630859,0.04638672,0.6826172,0.8739276,0.41889685,0.04638672,0.6826172,-85,-54,-20,-31,75,75,6,-111
24.833279967308044,true,0.04638672,0.20996094,0.8881836,0.87408507,0.4177249,0.20996094,0.8881836,59,-14,-16,46,-114,33,1,57
24.83580195903778,true,-0.15136719,0.5957031,0.7011719,0.868986,0.4322041,0.5957031,0.7011719,9,64,17,23,-14,4,2,-65
24.863960027694702,true,0.33203125,0.82177734,0.49951172,0.8635075,0.44563994,0.82177734,0.49951172,-49,-19,4,-5,-12,-13,-8,-5
24.8937109708786,true,0.625,0.77246094,0.48632812,0.8617943,0.45039877,0.77246094,0.48632812,-12,-15,-14,-7,-13,-20,3,3
24.923030018806458,true,0.42138672,0.7114258,0.51953125,0.8634134,0.4494071,0.7114258,0.51953125,-21,-5,-11,1,0,-16,-6,49
24.925379991531372,true,0.19433594,0.67041016,0.5473633,0.8662976,0.4470347,0.67041016,0.5473633,3,1,-8,-6,5,-7,2,14
24.953253030776978,true,0.1171875,0.70751953,0.5307617,0.86882555,0.4459491,0.70751953,0.5307617,-5,-8,-20,-39,-25,3,8,25
24.982725977897644,true,0.17626953,0.75439453,0.515625,0.8701733,0.44662303,0.75439453,0.515625,-2,-2,1,6,1,-1,-1,-16
24.984511971473694,true,0.21240234,0.78808594,0.49169922,0.87069255,0.4484387,0.78808594,0.49169922,-3,4,-1,-6,-5,-4,-4,-8
25.01327896118164,true,0.22363281,0.8017578,0.46142578,0.8708413,0.4507109,0.8017578,0.46142578,0,-3,-7,-6,-4,-6,-7,2
25.043203949928284,true,0.1821289,0.82373047,0.44140625,0.8709579,0.45308855,0.82373047,0.44140625,6,2,1,7,7,-3,0,-1
25.045050978660583,true,0.1171875,0.8154297,0.40429688,0.8713209,0.45497906,0.8154297,0.40429688,-3,-6,-5,1,3,4,-1,1
25.073305010795593,false,0.045898438,0.8100586,0.359375,0.87187296,0.45668954,0.8100586,0.359375,-5,0,-1,-6,-6,-3,-4,0
25.102988958358765,false,-0.020507812,0.8432617,0.35839844,0.8720228,0.4591746,0.8432617,0.35839844,-7,-2,0,-3,-5,-5,-4,-1
25.104912996292114,false,0.0073242188,0.84033203,0.41796875,0.87216836,0.4610181,0.84033203,0.41796875,-11,-6,1,-7,-5,-3,0,-6
25.133782982826233,false,0.087890625,0.78466797,0.45703125,0.8727387,0.4615175,0.78466797,0.45703125,5,5,1,-3,-10,-4,-3,1
25.163454055786133,false,0.13964844,0.78027344,0.48632812,0.87279695,0.46291992,0.78027344,0.48632812,1,-3,7,1,3,2,0,-3
25.16553795337677,false,0.08691406,0.81591797,0.46484375,0.87148887,0.46687338,0.81591797,0.46484375,3,3,3,4,1,-2,0,-1
25.194141030311584,false,0.14257812,0.85009766,0.43701172,0.86890423,0.47272152,0.85009766,0.43701172,-11,-5,2,2,-3,0,-1,6
25.22323203086853,false,0.26757812,0.8808594,0.45507812,0.86546326,0.4795786,0.8808594,0.45507812,3,1,-9,0,4,1,0,1
25.225682973861694,false,0.30273438,0.88671875,0.49414062,0.86209506,0.48573723,0.88671875,0.49414062,-3,-2,-3,-5,-9,-1,-1,1
25.253278970718384,false,0.21289062,0.90527344,0.50927734,0.85931164,0.4909393,0.90527344,0.50927734,-3,1,-9,-9,-9,1,0,-8
25.28316104412079,false,0.15429688,0.9399414,0.49853516,0.85621864,0.4968363,0.9399414,0.49853516,-6,2,10,-7,-13,0,4,8
25.28461003303528,false,0.21240234,0.94970703,0.50878906,0.8523978,0.50319856,0.94970703,0.50878906,4,0,-6,0,2,2,-2,-7
25.313295006752014,false,0.27539062,0.94091797,0.5864258,0.8477666,0.5101005,0.94091797,0.5864258,6,0,-1,7,2,1,-1,-2
25.343137979507446,false,0.25585938,0.92529297,0.6088867,0.84312224,0.5166893,0.92529297,0.6088867,-4,-4,4,3,3,-1,0,8
25.34476399421692,false,0.21240234,0.9794922,0.59277344,0.83896524,0.52272815,0.9794922,0.59277344,8,2,-3,2,10,-4,3,23
25.373438000679016,false,0.19433594,1.0219727,0.56152344,0.8350605,0.5281616,1.0219727,0.56152344,-5,3,-1,-11,-11,-3,4,6
25.403014063835144,false,0.19873047,1.0146484,0.56591797,0.83181584,0.5318177,1.0146484,0.56591797,3,2,2,1,0,-1,-1,-15
25.404482007026672,false,0.19335938,0.95703125,0.5673828,0.8293931,0.53390497,0.95703125,0.5673828,2,1,2,5,4,0,0,4
25.43385100364685,false,0.19384766,0.89501953,0.5566406,0.82754236,0.53493005,0.89501953,0.5566406,-9,-13,-9,-8,-5,0,-6,-1
25.464766025543213,false,0.18408203,0.90185547,0.5336914,0.82530683,0.53640974,0.90185547,0.5336914,12,3,-3,1,0,-2,2,-2
25.46685302257538,false,0.18115234,0.9116211,0.5019531,0.8230327,0.53768134,0.9116211,0.5019531,-1,-1,-5,-1,4,1,-3,-9
25.49385404586792,false,0.14160156,0.9165039,0.52001953,0.8211812,0.53809524,0.9165039,0.52001953,-7,3,4,-11,-2,-3,-2,-3
25.523048043251038,false,0.11328125,0.90234375,0.5307617,0.81968236,0.5378078,0.90234375,0.5307617,2,-2,-3,2,-1,1,-1,-6
25.525575041770935,false,0.10839844,0.8901367,0.5048828,0.8188754,0.5368224,0.8901367,0.5048828,-1,1,0,1,-2,1,1,3
25.553405046463013,false,0.11425781,0.92578125,0.48828125,0.8184463,0.53584456,0.92578125,0.48828125,9,0,-1,9,10,2,0,-5
25.582736015319824,false,0.123535156,1.0317383,0.5097656,0.8178196,0.5352846,1.0317383,0.5097656,0,-3,-1,-3,-5,0,-2,-6
25.584805965423584,false,0.091796875,1.1347656,0.5595703,0.8179692,0.53353244,1.1347656,0.5595703,5,1,-5,-7,-6,1,-1,2
25.61321794986725,false,0.099121094,1.1582031,0.58691406,0.82114714,0.5279806,1.1582031,0.58691406,4,0,0,-4,-3,1,-1,-4
25.643367052078247,false,0.10253906,1.0200195,0.5859375,0.826325,0.5201001,1.0200195,0.5859375,-13,-1,-4,-7,-6,-1,-1,0
25.645506024360657,false,0.12695312,0.8383789,0.58740234,0.83125067,0.51258117,0.8383789,0.58740234,-7,-4,-3,-12,-9,0,0,-5
25.67349398136139,false,0.110839844,0.7368164,0.5566406,0.8340679,0.50861967,0.7368164,0.5566406,0,2,3,0,-6,0,-2,-2
25.703636050224304,false,0.10644531,0.7949219,0.5258789,0.83464396,0.5088191,0.7949219,0.5258789,2,2,-2,8,1,0,-1,1
25.70660698413849,false,0.10986328,0.9267578,0.51123047,0.8339866,0.51078093,0.9267578,0.51123047,0,-4,-2,-1,3,-8,0,0
25.733494997024536,false,0.07470703,1.0185547,0.5097656,0.83444,0.51075953,1.0185547,0.5097656,-1,0,1,-4,-2,1,0,0
25.763906955718994,false,0.07910156,0.97314453,0.51464844,0.83654785,0.50797164,0.97314453,0.51464844,-2,-1,-3,0,-2,0,-2,-2
25.766466975212097,false,0.088378906,0.8876953,0.5185547,0.83970386,0.5033218,0.8876953,0.5185547,0,-1,0,-4,-4,0,0,-1
25.793421030044556,false,0.09814453,0.84228516,0.5180664,0.8419313,0.5001294,0.84228516,0.5180664,7,0,-1,5,5,2,-2,0
25.823899030685425,false,0.10546875,0.86865234,0.50390625,0.8427003,0.49929658,0.86865234,0.50390625,-5,-3,0,-1,4,-1,-2,-3
25.826449036598206,false,0.107421875,0.91259766,0.47705078,0.8425963,0.49973455,0.91259766,0.47705078,-2,-3,1,-3,-2,-2,0,-3
25.85307002067566,false,0.103515625,0.89941406,0.45947266,0.84289837,0.4994275,0.89941406,0.45947266,-4,-4,8,-2,-1,0,0,0
25.883308053016663,false,0.11767578,0.8769531,0.41992188,0.8436885,0.49844885,0.8769531,0.41992188,-2,0,-1,1,-3,0,-3,-1
25.885486006736755,false,0.12207031,0.85009766,0.41503906,0.8443442,0.49758506,0.85009766,0.41503906,-1,3,0,-2,-2,1,-1,1
25.91330397129059,false,0.1328125,0.7988281,0.4033203,0.8448981,0.4966111,0.7988281,0.4033203,4,-2,-1,0,5,2,1,0
25.943137049674988,false,0.13330078,0.7446289,0.40576172,0.8455807,0.49551895,0.7446289,0.40576172,-2,-2,-4,1,3,-1,-1,1
25.94550597667694,false,0.13085938,0.70996094,0.40478516,0.84605825,0.49508536,0.70996094,0.40478516,1,-2,1,-4,-3,-1,-2,-1
25.973086953163147,false,0.13427734,0.68408203,0.3959961,0.84622973,0.49550584,0.68408203,0.3959961,5,1,-13,-6,-8,0,-2,0
26.003268003463745,false,0.12451172,0.6621094,0.39111328,0.8462353,0.49654675,0.6621094,0.39111328,-3,-1,-1,-9,-6,-1,-1,-1
26.005475997924805,false,0.09716797,0.68652344,0.39501953,0.8464295,0.49783507,0.68652344,0.39501953,-5,-3,-1,-2,-14,-3,-1,-1
26.033614993095398,false,0.10107422,0.6948242,0.40185547,0.84769505,0.49752033,0.6948242,0.40185547,-7,0,3,-10,-11,-2,-4,-3
26.06360399723053,false,0.10888672,0.7104492,0.40771484,0.8511675,0.49367106,0.7104492,0.40771484,16,14,17,11,-4,-9,-3,4
26.065893054008484,false,0.18066406,0.83935547,0.49609375,0.85697097,0.4859831,0.83935547,0.49609375,37,-3,-10,-4,9,14,-5,0
26.0937180519104,false,0.55810547,0.7260742,0.31396484,0.8637573,0.47536865,0.7260742,0.31396484,97,22,-22,16,4,19,4,-17
26.12353205680847,false,-0.66064453,4.802246,2.206543,0.8772721,0.449531,4.802246,2.206543,45,16,5,75,123,51,-111,-30
26.154178023338318,false,0.076171875,0.20361328,1.0009766,0.87924683,0.4395929,0.20361328,1.0009766,-72,-43,3,-57,28,-35,104,-102
26.15646803379059,false,0.4633789,0.9189453,0.5546875,0.882879,0.43240562,0.9189453,0.5546875,-124,-8,-6,-44,-50,-67,121,-62
26.18325400352478,false,0.5,0.8823242,0.46679688,0.88961643,0.4215836,0.8823242,0.46679688,21,1,-2,-16,-37,-14,35,84
26.185420036315918,false,-0.36669922,1.0712891,0.8803711,0.8943148,0.41261044,1.0712891,0.8803711,-28,-8,6,3,-24,-3,-9,14
26.243345975875854,false,-0.063964844,0.6972656,0.6977539,0.8898488,0.42096764,0.6972656,0.6977539,6,3,3,9,-2,9,-6,58
26.245506048202515,false,0.2709961,0.9741211,0.42138672,0.88260084,0.4342201,0.9741211,0.42138672,1,2,0,0,-24,37,-9,33
26.273069977760315,false,0.025390625,0.7861328,0.5830078,0.8828749,0.433014,0.7861328,0.5830078,0,2,0,1,2,-7,-8,13
26.303215980529785,false,0.14257812,0.8652344,0.578125,0.8839829,0.4303031,0.8652344,0.578125,1,-4,-2,5,-5,-4,-4,2
26.30537700653076,false,0.11328125,0.7998047,0.6503906,0.8863405,0.42458403,0.7998047,0.6503906,-2,-2,1,2,0,3,-6,9
26.33330798149109,false,0.04248047,0.7705078,0.6850586,0.88828087,0.41987795,0.7705078,0.6850586,0,-3,-3,-7,-1,-4,-1,9
26.363352060317993,false,0.06298828,0.7714844,0.69628906,0.88871795,0.41829562,0.7714844,0.69628906,3,1,-4,-2,-3,1,-4,3
26.393421053886414,false,0.0703125,0.76220703,0.6582031,0.8877152,0.41944298,0.76220703,0.6582031,-7,0,1,-7,-5,-4,-5,-1
26.395563006401062,false,0.08935547,0.75927734,0.63623047,0.8869345,0.4204867,0.75927734,0.63623047,-8,-2,0,-6,-9,0,-2,2
26.423606038093567,false,0.09765625,0.7885742,0.6333008,0.88666946,0.42078194,0.7885742,0.6333008,-5,0,-1,1,-5,-3,-3,1
26.42611801624298,false,0.088378906,0.80322266,0.63134766,0.8864528,0.4211612,0.80322266,0.63134766,1,-1,-1,-6,-4,1,-2,4
26.453217029571533,false,0.08300781,0.8149414,0.6347656,0.8859011,0.42225876,0.8149414,0.6347656,-3,3,0,-3,-3,-3,0,2
26.48394501209259,false,0.09277344,0.81689453,0.62109375,0.88535106,0.42341813,0.81689453,0.62109375,-1,-2,0,3,2,0,-2,-4
26.485674023628235,false,0.08886719,0.81152344,0.61572266,0.8852902,0.42354032,0.81152344,0.61572266,5,-3,-2,-2,0,0,-1,1
26.543248057365417,false,0.08154297,0.7998047,0.6279297,0.88534933,0.42347836,0.7998047,0.6279297,0,0,0,-2,2,-2,-3,-1
26.544466018676758,false,0.087402344,0.7973633,0.6245117,0.88549715,0.42330757,0.7973633,0.6245117,-1,1,0,1,1,2,0,1
26.54696798324585,false,0.088378906,0.7998047,0.6376953,0.8858499,0.42262968,0.7998047,0.6376953,5,2,0,-3,1,2,-1,-1
26.592506051063538,false,0.087402344,0.7885742,0.64208984,0.8862608,0.4218284,0.7885742,0.64208984,0,-2,-2,-1,2,-2,-2,0
26.618958950042725,false,0.09326172,0.79003906,0.63623047,0.8867058,0.4209823,0.79003906,0.63623047,2,-1,0,2,2,-1,1,1
26.633288025856018,false,0.092285156,0.7763672,0.6411133,0.8872029,0.42000985,0.7763672,0.6411133,2,-2,-4,1,3,1,-1,-1
26.635337948799133,false,0.09082031,0.78027344,0.6508789,0.88759524,0.41932192,0.78027344,0.6508789,-4,-1,0,1,2,1,-2,-5
26.663311004638672,false,0.083496094,0.78125,0.64941406,0.8878967,0.41889292,0.78125,0.64941406,-1,0,0,2,4,-1,-1,-2
26.665529012680054,false,0.080566406,0.7890625,0.6533203,0.8881118,0.41866383,0.7890625,0.6533203,0,-1,1,1,-3,-3,-2,1
26.693253993988037,false,0.083984375,0.7792969,0.6484375,0.88829553,0.41848102,0.7792969,0.6484375,3,0,-2,-3,2,0,0,1
26.72321105003357,false,0.080566406,0.7817383,0.64746094,0.8885719,0.4181623,0.7817383,0.64746094,4,-3,-1,1,4,-1,-1,-1
26.725785970687866,false,0.07714844,0.7836914,0.6513672,0.8888141,0.4179172,0.7836914,0.6513672,-4,-1,0,-6,2,1,-2,-1
26.753674030303955,false,0.07373047,0.78515625,0.6489258,0.88905364,0.4176709,0.78515625,0.6489258,-10,1,-1,-4,-2,-2,-2,-1
26.783501982688904,false,0.07763672,0.79785156,0.6640625,0.889386,0.41719532,0.79785156,0.6640625,-6,0,0,-7,-6,0,-2,-1
26.785961031913757,false,0.079589844,0.7832031,0.6352539,0.8895725,0.41707486,0.7832031,0.6352539,1,-1,-1,-6,-3,-1,0,1
26.813423991203308,false,0.068847656,0.77978516,0.66064453,0.8900075,0.416346,0.77978516,0.66064453,0,-1,2,2,-2,1,2,0
26.84348201751709,false,0.0703125,0.7714844,0.6582031,0.8902263,0.41602898,0.7714844,0.6582031,4,1,-1,0,4,-2,-2,0
26.84579598903656,false,0.080078125,0.7792969,0.65722656,0.89041674,0.4157272,0.7792969,0.65722656,0,-1,-2,-1,0,1,-2,-1
26.873090028762817,false,0.06933594,0.77490234,0.6591797,0.89059985,0.41548306,0.77490234,0.6591797,0,-2,-3,-1,4,-2,0,0
26.90323495864868,false,0.076660156,0.7714844,0.6542969,0.8906624,0.4154227,0.7714844,0.6542969,1,-1,-2,-2,4,-2,1,1
26.905192971229553,false,0.075683594,0.78222656,0.6621094,0.890813,0.41519186,0.78222656,0.6621094,1,0,0,0,0,0,0,0
26.93312704563141,false,0.075683594,0.77978516,0.65771484,0.8907904,0.41524237,0.77978516,0.65771484,-3,1,-1,-1,-3,1,-1,-1
26.963449954986572,false,0.07861328,0.7788086,0.66015625,0.8908657,0.41512692,0.7788086,0.66015625,1,-2,0,0,1,-1,0,0
26.993579030036926,false,0.07128906,0.7792969,0.66015625,0.8909633,0.41499346,0.7792969,0.66015625,3,-2,-1,2,0,1,-1,-2
26.99652397632599,false,0.076171875,0.77246094,0.6533203,0.8909386,0.41504297,0.77246094,0.6533203,1,2,1,-3,-1,1,-2,0
27.023197054862976,false,0.07421875,0.78027344,0.6635742,0.8910287,0.41487342,0.78027344,0.6635742,1,-1,-1,-4,-4,-1,-1,-1
27.024873971939087,false,0.07714844,0.7763672,0.65722656,0.8910158,0.41492847,0.7763672,0.65722656,-2,-1,-1,-1,2,0,0,1
27.0534690618515,false,0.08154297,0.78222656,0.66308594,0.8910842,0.41474876,0.78222656,0.66308594,1,0,0,1,1,-2,1,0
27.083727955818176,false,0.08251953,0.77441406,0.6513672,0.8910617,0.41479933,0.77441406,0.6513672,-3,-2,0,-1,3,0,-2,-1
27.086140036582947,false,0.08154297,0.78125,0.66015625,0.8912639,0.41438097,0.78125,0.66015625,0,-1,-1,-1,1,-1,0,0
27.113229990005493,false,0.07519531,0.77490234,0.6591797,0.8913606,0.4142144,0.77490234,0.6591797,0,1,-3,-1,2,-1,-3,-1
27.143530011177063,false,0.07714844,0.7763672,0.6660156,0.89161474,0.4137307,0.7763672,0.6660156,-1,-2,2,-3,-2,-2,0,1
27.173887968063354,false,0.072265625,0.7758789,0.66796875,0.89176905,0.4134732,0.7758789,0.66796875,-3,-3,-1,1,2,2,0,-2
27.17687201499939,false,0.075683594,0.77685547,0.6640625,0.89185476,0.41339532,0.77685547,0.6640625,-1,-1,-3,-1,-23,-4,-2,0
27.203186988830566,false,0.06591797,0.7871094,0.6665039,0.89177966,0.41372228,0.7871094,0.6665039,3,-1,-2,-1,8,1,1,0
27.20535397529602,false,0.05810547,0.77246094,0.66748047,0.8917117,0.41402426,0.77246094,0.66748047,2,-1,-3,1,-5,-1,-1,3
27.26333999633789,false,0.05517578,0.76220703,0.6855469,0.89120734,0.41535965,0.76220703,0.6855469,-6,-8,-15,-2,11,0,-3,-3
27.26576006412506,false,0.05419922,0.75927734,0.66748047,0.89004904,0.41810697,0.75927734,0.66748047,3,-4,-8,-7,0,1,-4,-2
27.293292999267578,false,0.053222656,0.7504883,0.6489258,0.88641465,0.4264215,0.7504883,0.6489258,0,1,2,-6,-5,3,2,2
27.353324055671692,false,0.07470703,0.77001953,0.6796875,0.8843756,0.4308653,0.77001953,0.6796875,2,3,7,6,17,-1,-1,0
27.355023980140686,false,0.052734375,0.77441406,0.67871094,0.88168204,0.43672103,0.77441406,0.67871094,-4,-4,-2,-3,0,-1,-1,-2
27.357308983802795,false,0.04736328,0.82421875,0.62890625,0.87735236,0.44593966,0.82421875,0.62890625,-2,-3,-4,-3,-14,0,-2,0
27.383280038833618,false,0.009765625,0.89404297,0.6582031,0.8725699,0.4565489,0.89404297,0.6582031,0,3,3,0,11,3,-2,4
27.384862065315247,false,0.044921875,0.90771484,0.51171875,0.8682089,0.46627164,0.90771484,0.51171875,-10,1,-5,5,-5,-5,-3,-2
27.443372011184692,false,0.09326172,0.80859375,0.5258789,0.8642354,0.47475266,0.80859375,0.5258789,4,-2,1,-6,9,-2,-2,0
27.444632053375244,false,0.06738281,0.8901367,0.5283203,0.8605562,0.48273912,0.8901367,0.5283203,-7,3,0,-7,-1,3,2,3
27.44709002971649,false,0.04296875,0.95703125,0.51416016,0.8580931,0.48831588,0.95703125,0.51416016,-10,2,10,-3,-5,1,-6,-5
27.473281979560852,false,0.068847656,0.84716797,0.52001953,0.85789853,0.48983532,0.84716797,0.52001953,-1,-1,-6,-4,5,2,1,3
27.503515005111694,false,0.122558594,0.84375,0.48046875,0.8571641,0.4923368,0.84375,0.48046875,-1,2,-3,-5,-14,-7,0,-5
27.504480957984924,false,0.111328125,0.9135742,0.51904297,0.8560546,0.49507728,0.9135742,0.51904297,-1,-5,-6,9,-9,2,2,-6
27.533279061317444,false,0.13134766,0.8173828,0.51660156,0.8540386,0.49892166,0.8173828,0.51660156,-9,-1,-1,-17,-6,-2,0,-2
27.562965989112854,false,0.10253906,0.90478516,0.4951172,0.851584,0.50379694,0.90478516,0.4951172,3,-2,-4,-5,5,-1,-1,4
27.564908981323242,false,0.107421875,0.8911133,0.48291016,0.8489012,0.5087426,0.8911133,0.48291016,2,-2,-3,-5,12,0,1,-8
27.593402981758118,false,0.096191406,0.9868164,0.48779297,0.84688944,0.5124673,0.9868164,0.48779297,-2,1,-1,-5,-14,-4,-1,-1
27.623167991638184,false,0.034179688,0.9980469,0.4873047,0.8472609,0.51259255,0.9980469,0.4873047,1,-1,3,3,-3,1,-1,-17
27.624580025672913,false,0.07763672,0.9223633,0.4975586,0.8488395,0.5104512,0.9223633,0.4975586,6,0,3,-1,1,-4,0,1
27.653581023216248,false,0.0859375,0.9506836,0.57128906,0.8510597,0.5068636,0.9506836,0.57128906,0,-2,-6,0,7,2,-2,8
27.683061957359314,false,0.083496094,0.85498047,0.5361328,0.8528768,0.50392544,0.85498047,0.5361328,0,-3,-3,1,-1,-4,1,2
27.685027956962585,false,0.033691406,0.8574219,0.51708984,0.8549559,0.5007538,0.8574219,0.51708984,-1,2,10,8,-1,-6,-3,0
27.71332097053528,false,0.030761719,0.8198242,0.6464844,0.8567444,0.49783465,0.8198242,0.6464844,0,0,-2,-8,-3,6,-1,2
27.74345099925995,false,-0.0126953125,0.89990234,0.6308594,0.85900784,0.49472457,0.89990234,0.6308594,0,-3,-5,-6,0,-2,-2,0
27.745197057724,false,-0.032226562,0.86328125,0.62060547,0.86159766,0.49098125,0.86328125,0.62060547,-5,3,7,-1,-3,1,0,0
27.77374303340912,false,-0.034179688,0.85253906,0.63378906,0.86485237,0.48629254,0.85253906,0.63378906,-4,-1,0,1,-9,0,-2,-1
27.803313970565796,false,-0.0234375,0.8798828,0.6484375,0.8687538,0.48055214,0.8798828,0.6484375,0,1,-11,-3,-3,2,1,0
27.80525302886963,false,-0.008300781,0.87841797,0.64746094,0.8735564,0.473095,0.87841797,0.64746094,-2,-6,-11,-3,-2,-3,0,0
27.833662033081055,false,-0.013183594,0.8588867,0.65966797,0.87927663,0.46384054,0.8588867,0.65966797,-1,3,1,3,-1,-2,-2,-3
27.863330006599426,false,-0.019042969,0.8251953,0.6669922,0.8856614,0.4530851,0.8251953,0.6669922,-4,-3,-7,4,7,0,-3,30
27.865463972091675,false,-0.0087890625,0.76171875,0.6816406,0.8924974,0.44118255,0.76171875,0.6816406,-6,-2,1,-10,-13,-1,1,-21
27.89469802379608,false,-0.0234375,0.7285156,0.6845703,0.89879334,0.43007797,0.7285156,0.6845703,-2,0,-2,0,4,-1,-3,9
27.941722989082336,false,-0.051757812,0.75341797,0.6640625,0.9036293,0.42160007,0.75341797,0.6640625,-3,2,9,-7,-9,1,-1,-3
27.944305062294006,false,-0.06738281,0.81152344,0.6484375,0.9078091,0.41407764,0.81152344,0.6484375,2,0,6,-4,-15,-6,0,-4
27.953359961509705,false,-0.083496094,0.8046875,0.62646484,0.91282886,0.40425715,0.8046875,0.62646484,0,-1,1,2,2,5,1,-4
27.983320951461792,false,-0.084472656,0.7416992,0.6303711,0.91893464,0.3912568,0.7416992,0.6303711,4,0,-1,-1,2,2,0,0
27.984951972961426,false,-0.11425781,0.7089844,0.63183594,0.92481536,0.37768993,0.7089844,0.63183594,2,0,-4,-2,-6,0,0,0
28.013866066932678,false,-0.13085938,0.6855469,0.6459961,0.92984724,0.36488295,0.6855469,0.6459961,-1,-2,-3,1,9,-2,-2,-4
28.04413604736328,false,-0.16992188,0.6845703,0.63623047,0.93349427,0.35425663,0.6845703,0.63623047,0,-2,-4,0,-3,0,-1,-1
28.045765042304993,false,-0.12890625,0.72021484,0.7138672,0.93557453,0.3466289,0.72021484,0.7138672,-6,0,-1,-8,-2,-1,-3,-4
28.073660016059875,false,-0.17919922,0.8330078,0.7470703,0.9369244,0.3401005,0.8330078,0.7470703,1,-3,-1,-2,3,-2,-1,-4
28.103283047676086,false,-0.19238281,0.76416016,0.69384766,0.9380644,0.3335625,0.76416016,0.69384766,-2,-1,-3,-2,-3,-2,-1,-1
28.10546898841858,false,-0.1875,0.6274414,0.59814453,0.9386244,0.32740155,0.6274414,0.59814453,1,0,0,-4,-6,1,0,1
28.133538007736206,false,-0.15185547,0.46191406,0.51904297,0.9385261,0.32148916,0.46191406,0.51904297,-9,-1,2,-13,-9,-2,-1,-1
28.16328501701355,false,-0.18408203,0.40966797,0.5541992,0.9368602,0.31763768,0.40966797,0.5541992,5,0,-1,2,6,0,-2,1
28.16556406021118,false,-0.1977539,0.47460938,0.5810547,0.93238103,0.3197049,0.47460938,0.5810547,2,-1,1,-3,-3,-4,0,0
28.193943977355957,false,-0.1977539,0.40820312,0.5654297,0.92712253,0.321737,0.40820312,0.5654297,-2,-4,-2,7,7,-3,-2,-4
28.223049998283386,false,-0.26416016,0.39892578,0.52978516,0.9209883,0.32245883,0.39892578,0.52978516,4,2,-2,-6,3,0,1,2
28.224732041358948,false,-0.30273438,0.41357422,0.5410156,0.91424626,0.32100555,0.41357422,0.5410156,8,-1,-1,4,0,0,-2,0
28.253227949142456,false,-0.35791016,0.44433594,0.53808594,0.9068472,0.3175827,0.44433594,0.53808594,-6,-2,0,-6,-9,1,0,-2
28.28311002254486,false,-0.46972656,0.4560547,0.5263672,0.8984841,0.31306556,0.4560547,0.5263672,-5,-3,0,-9,-8,0,-1,-1
28.2845139503479,false,-0.54541016,0.46142578,0.50878906,0.88984245,0.30609506,0.46142578,0.50878906,-4,1,0,0,-5,-1,0,-2
28.31327497959137,false,-0.60546875,0.4765625,0.50146484,0.8809024,0.29652327,0.4765625,0.50146484,-3,1,4,-2,1,0,-1,-1
28.343345046043396,false,-0.64404297,0.43603516,0.46777344,0.8717294,0.28510347,0.43603516,0.46777344,1,1,0,3,5,0,-1,1
28.34510898590088,false,-0.71240234,0.35107422,0.48486328,0.86209023,0.2712496,0.35107422,0.48486328,0,1,0,-1,-3,2,0,-3
28.37312400341034,false,-0.8100586,0.31835938,0.50878906,0.8513995,0.25745237,0.31835938,0.50878906,6,-2,-3,-2,3,-1,-1,0
28.40337598323822,false,-0.8808594,0.3017578,0.51416016,0.8401166,0.24439313,0.3017578,0.51416016,-4,0,-1,-3,-2,-4,0,0
28.404803037643433,false,-0.9580078,0.31982422,0.53271484,0.82839745,0.23218568,0.31982422,0.53271484,-1,-3,-1,0,-1,-2,-1,-1
28.43415403366089,false,-1.0092773,0.32226562,0.5541992,0.81670356,0.22114477,0.32226562,0.5541992,2,0,-1,1,3,-1,0,1
28.465476036071777,false,-0.9711914,0.28027344,0.56933594,0.8054345,0.21100236,0.28027344,0.56933594,4,0,1,2,-1,0,-1,2
28.46595001220703,false,-1.1245117,0.22558594,0.65478516,0.7939263,0.20264745,0.22558594,0.65478516,-29,-5,3,-16,-16,-11,0,-15
28.49278998374939,false,-1.1191406,0.17138672,0.7192383,0.7850811,0.19843714,0.17138672,0.7192383,11,1,1,4,3,3,-2,3
28.522876977920532,false,-1.0722656,0.1328125,0.72314453,0.77632254,0.19647631,0.1328125,0.72314453,-1,-1,-4,-4,0,0,1,-1
28.58302402496338,false,-1.0668945,0.1015625,0.7631836,0.76869977,0.19721049,0.1015625,0.7631836,7,5,4,6,3,-1,-8,-3
28.58442795276642,false,-1.0458984,0.064941406,0.77441406,0.7624241,0.2001432,0.064941406,0.77441406,-3,2,1,3,-7,0,-1,2
28.58932900428772,false,-1.0107422,0.030273438,0.7558594,0.7571511,0.20575224,0.030273438,0.7558594,0,0,-2,-4,1,0,0,0
28.613502025604248,false,-0.94140625,0.009765625,0.6533203,0.7466739,0.226816,0.009765625,0.6533203,-5,-3,-3,0,-3,0,0,1
28.643826007843018,false,-0.90478516,0.029296875,0.61328125,0.74135566,0.24042481,0.029296875,0.61328125,-4,-1,0,-6,-3,1,1,1
28.6454039812088,false,-0.88916016,0.083984375,0.5859375,0.7361185,0.2549558,0.083984375,0.5859375,-7,-1,-2,-10,-10,1,1,-1
28.67371702194214,false,-0.8623047,0.15332031,0.56347656,0.73146677,0.269295,0.15332031,0.56347656,0,0,-1,-9,0,-2,0,-1
28.732818961143494,false,-0.8647461,0.21386719,0.5395508,0.7275713,0.2826053,0.21386719,0.5395508,-5,-4,-3,-5,-6,-1,-1,0
28.734187960624695,false,-0.8745117,0.23388672,0.5161133,0.7248833,0.2944457,0.23388672,0.5161133,2,-1,-3,2,2,1,0,1
28.736703991889954,false,-0.87109375,0.23291016,0.51708984,0.7239734,0.30525175,0.23291016,0.51708984,2,1,-2,0,5,0,1,1
28.8232159614563,false,-0.8833008,0.26611328,0.51171875,0.7242177,0.31507894,0.26611328,0.51171875,-4,0,4,5,12,-1,1,-1
28.82479703426361,false,-0.92089844,0.25146484,0.5307617,0.7251251,0.32478034,0.25146484,0.5307617,-7,3,14,1,-4,-3,-2,-1
28.82733404636383,false,-0.93408203,0.26123047,0.5498047,0.7266999,0.334968,0.26123047,0.5498047,-1,8,36,8,-10,-3,-2,-2
28.88316297531128,false,-0.9736328,0.41552734,0.59472656,0.73615175,0.37012058,0.41552734,0.59472656,7,-2,-11,-4,-5,-2,1,1
28.88462495803833,false,-0.9819336,0.47216797,0.6333008,0.7412252,0.38294193,0.47216797,0.6333008,2,-6,-23,-5,18,8,-2,1
28.88707399368286,false,-0.94189453,0.4165039,0.5708008,0.74721617,0.39442173,0.4165039,0.5708008,-11,7,41,18,-9,-6,-2,-5
28.913596034049988,false,-0.8852539,0.3251953,0.49169922,0.75359344,0.40417072,0.3251953,0.49169922,13,-15,-76,-28,-7,2,1,6
28.944095015525818,false,-0.87890625,0.45410156,0.58691406,0.75826263,0.41529572,0.45410156,0.58691406,-29,12,105,33,-5,-16,-7,-18
28.94627594947815,false,-0.83984375,0.53271484,0.52246094,0.7638252,0.4255545,0.53271484,0.52246094,25,-23,-128,32,29,18,11,22
28.972756028175354,false,-0.76171875,0.38720703,0.37646484,0.7714842,0.43182364,0.38720703,0.37646484,-31,11,60,17,-51,-21,-22,-36
29.002442955970764,false,-0.7871094,0.7441406,0.6904297,0.7769517,0.4400834,0.7441406,0.6904297,7,-14,-42,-25,38,0,13,21
29.00405204296112,false,-1.0307617,1.3203125,1.0541992,0.7852828,0.44854993,1.3203125,1.0541992,9,-5,10,-50,-23,6,0,-13
29.032729029655457,false,-1.1020508,1.222168,1.0170898,0.80453736,0.442462,1.222168,1.0170898,20,21,-6,-10,0,-12,0,10
29.063106060028076,false,-0.97802734,0.61279297,0.9379883,0.8266385,0.42641193,0.61279297,0.9379883,-10,-8,5,-3,-1,10,6,12
29.09431004524231,false,-0.69433594,0.28027344,0.88427734,0.8444973,0.41199458,0.28027344,0.88427734,-4,9,9,-1,-22,0,-3,-8
29.095749974250793,false,-0.48095703,0.3310547,0.89160156,0.8551328,0.40797344,0.3310547,0.89160156,1,4,26,9,1,1,-4,-2
29.12297296524048,false,-0.41845703,0.6323242,0.7832031,0.86142683,0.41029626,0.6323242,0.7832031,-9,-6,-7,-14,-4,-1,0,-2
29.124333024024963,false,-0.45751953,0.8588867,0.9350586,0.8690939,0.40784362,0.8588867,0.9350586,-9,1,13,4,-3,0,-3,0
29.153241991996765,false,-0.4584961,0.65625,0.83447266,0.88078284,0.39235428,0.65625,0.83447266,-1,-2,1,5,8,4,0,1
29.183096051216125,false,-0.31884766,0.3256836,0.8544922,0.89272743,0.37018952,0.3256836,0.8544922,0,-4,-7,-12,-3,5,5,1
29.184558033943176,false,-0.23046875,0.13867188,0.8095703,0.90184516,0.3477979,0.13867188,0.8095703,-4,-3,-8,1,-11,6,2,-2
29.21335005760193,false,-0.1694336,0.087890625,0.74560547,0.90767395,0.3272167,0.087890625,0.74560547,13,-4,-15,-38,-23,-1,-1,4
29.2444189786911,false,-0.14990234,0.16015625,0.6972656,0.9106168,0.30909336,0.16015625,0.6972656,-4,-4,-6,9,11,-5,0,-3
29.245938062667847,false,-0.15039062,0.21044922,0.6430664,0.91181964,0.29144782,0.21044922,0.6430664,3,2,-2,-15,15,-3,-2,1
29.333284974098206,false,-0.13183594,0.26171875,0.62109375,0.911929,0.2732552,0.26171875,0.62109375,-2,-3,-7,-14,0,6,9,-4
29.364533066749573,false,-0.23095703,0.36572266,0.6557617,0.91122067,0.25464618,0.36572266,0.6557617,-4,-4,-9,17,24,-6,-7,-3
29.366924047470093,false,-0.20605469,0.46728516,0.7060547,0.8996999,0.21186285,0.46728516,0.7060547,-4,-3,-2,7,-10,-8,-1,-2
29.394363045692444,false,-0.17773438,0.8383789,0.6616211,0.885233,0.20917696,0.8383789,0.6616211,-1,-2,-2,-4,4,4,3,1
29.423632979393005,false,0.026367188,0.671875,0.6035156,0.87806433,0.21161191,0.671875,0.6035156,0,-1,-2,-8,-4,0,-2,-1
29.454406023025513,false,0.24560547,0.38378906,0.5800781,0.87130904,0.21418028,0.38378906,0.5800781,-2,-5,-17,-22,-32,-5,-2,-1
29.45640802383423,false,0.20361328,0.37109375,0.6933594,0.8615114,0.22814947,0.37109375,0.6933594,-17,-1,1,1,-9,1,2,-7
29.484371066093445,false,-0.0146484375,0.8300781,0.90527344,0.84949994,0.24933232,0.8300781,0.90527344,-52,-2,-6,-84,-61,0,18,-2
29.487048983573914,false,-0.11669922,1.2158203,0.84716797,0.8379118,0.27039257,1.2158203,0.84716797,-82,-22,16,52,13,-27,-59,-33
29.51404297351837,false,0.03466797,1.2573242,1.0576172,0.83216345,0.2780185,1.2573242,1.0576172,19,-5,-23,-27,40,-32,-4,-8
29.543823957443237,false,0.00048828125,1.0214844,1.1323242,0.8312873,0.27556992,1.0214844,1.1323242,0,0,35,-10,17,12,-34,-16
29.545273065567017,false,0.06738281,0.5024414,0.97998047,0.8326747,0.2667342,0.5024414,0.97998047,35,5,-20,-49,-68,15,-1,7
29.575247049331665,false,0.11621094,0.47851562,1.0317383,0.83371884,0.2578858,0.47851562,1.0317383,-29,-3,-7,14,-8,21,33,12
29.603106021881104,false,0.10595703,0.37646484,0.7915039,0.8334209,0.2497516,0.37646484,0.7915039,-5,7,10,34,-8,-8,-20,6
29.60548496246338,false,-0.048339844,0.50146484,0.7006836,0.8328217,0.24560459,0.50146484,0.7006836,-30,-7,-6,-29,-41,-2,66,10
