time,gesture,ax,ay,az,qw,qx,qy,qz,e0,e1,e2,e3,e4,e5,e6,e7
9.619953989982605,false,-0.63134766,0.40478516,0.7246094,0.84125787,0.32684729,0.40478516,0.7246094,-3,0,0,-6,-2,-2,0,0
9.621263027191162,false,-0.625,0.40234375,0.7265625,0.8412869,0.32698062,0.40234375,0.7265625,1,-1,-1,-2,-3,-1,0,0
9.622575998306274,false,-0.6225586,0.4008789,0.72021484,0.8413936,0.32697466,0.4008789,0.72021484,-7,-2,-1,-6,-7,-3,-1,-2
9.624055027961731,false,-0.62890625,0.39941406,0.7348633,0.84150374,0.32684794,0.39941406,0.7348633,-2,-1,-1,-2,-5,1,0,1
9.639409065246582,false,-0.62597656,0.40234375,0.73339844,0.84159005,0.3267967,0.40234375,0.73339844,0,-1,-1,2,2,-1,-3,-1
9.669183015823364,false,-0.6220703,0.39990234,0.73291016,0.8417133,0.32673615,0.39990234,0.73291016,-1,-2,0,-2,1,-2,-3,-3
9.671059012413025,false,-0.62841797,0.39746094,0.7290039,0.84180903,0.3267259,0.39746094,0.7290039,2,0,0,-1,-2,-1,2,0
9.699351072311401,false,-0.6176758,0.390625,0.7265625,0.84192497,0.3265404,0.390625,0.7265625,3,1,-1,-3,-1,-2,0,-2
9.729264974594116,false,-0.62890625,0.3984375,0.7324219,0.8419442,0.3265479,0.3984375,0.7324219,-2,-1,-3,1,-2,-1,0,0
9.73089599609375,false,-0.6333008,0.3984375,0.734375,0.8420113,0.32655025,0.3984375,0.734375,-2,-2,0,3,0,0,3,0
9.75931203365326,false,-0.6303711,0.40039062,0.73339844,0.84202707,0.32667843,0.40039062,0.73339844,1,-2,0,-5,1,-1,-1,0
9.789245009422302,false,-0.6274414,0.4008789,0.73291016,0.8420042,0.3267916,0.4008789,0.73291016,1,-1,-1,0,2,0,-1,0
9.790870070457458,false,-0.6230469,0.40625,0.7314453,0.8420592,0.32691136,0.40625,0.7314453,-3,1,-2,0,1,-1,-1,0
13.86561906337738,false,-0.6220703,0.3955078,0.73291016,0.8414755,0.32222176,0.3955078,0.73291016,2,0,-2,-3,-1,0,0,0
13.866603970527649,false,-0.6191406,0.39892578,0.7392578,0.84149504,0.32202277,0.39892578,0.7392578,-4,-1,1,-6,-8,0,-2,-1
13.925454020500183,false,-0.62060547,0.38427734,0.7426758,0.8416296,0.32147822,0.38427734,0.7426758,0,2,-1,2,-1,0,-1,-1
13.926926970481873,false,-0.61816406,0.39013672,0.7373047,0.8416265,0.321416,0.39013672,0.7373047,0,1,-1,-3,-3,0,0,1
13.955765962600708,false,-0.6201172,0.39013672,0.73876953,0.84161586,0.32141194,0.39013672,0.73876953,-4,-6,-1,-5,-3,-3,-1,-2
13.985383033752441,false,-0.62353516,0.39208984,0.7402344,0.84161586,0.32141194,0.39208984,0.7402344,1,0,0,0,-2,1,-2,1
13.987452983856201,false,-0.6166992,0.3930664,0.7397461,0.8416323,0.3213572,0.3930664,0.7397461,0,-1,-2,1,1,1,1,-1
14.016035079956055,false,-0.62109375,0.390625,0.7392578,0.8416323,0.3213572,0.390625,0.7392578,0,2,0,-2,-4,-3,-3,-2
14.045886993408203,false,-0.62109375,0.390625,0.7446289,0.8416489,0.32130247,0.390625,0.7446289,-2,-2,-1,1,0,-1,-1,0
14.047831058502197,false,-0.62158203,0.39257812,0.7397461,0.8416489,0.32130247,0.39257812,0.7397461,-2,-1,-2,0,-2,1,-1,0
14.076356053352356,false,-0.6220703,0.390625,0.73876953,0.8416293,0.321295,0.390625,0.73876953,0,-3,0,-1,-1,0,0,-2
14.105236053466797,false,-0.62402344,0.3930664,0.73779297,0.8416293,0.321295,0.3930664,0.73779297,2,0,-1,3,2,-2,1,-1
14.106821060180664,false,-0.62060547,0.3876953,0.73828125,0.84163517,0.3212362,0.3876953,0.73828125,0,0,-2,-1,-3,-2,-1,-1
14.135735034942627,false,-0.6225586,0.39013672,0.73876953,0.84163517,0.3212362,0.39013672,0.73876953,0,-1,-1,0,-1,1,-1,0
14.165220022201538,false,-0.6196289,0.3881836,0.73535156,0.84163517,0.3212362,0.3881836,0.73535156,-1,2,-1,-3,6,1,1,-1
14.167338013648987,false,-0.62158203,0.38427734,0.7368164,0.8416516,0.32118142,0.38427734,0.7368164,2,-2,-1,-3,4,-3,-1,0
14.196048974990845,false,-0.6201172,0.38964844,0.734375,0.8416213,0.32116985,0.38964844,0.734375,-2,-1,-1,-1,-2,-2,-2,0
14.245351076126099,false,-0.6274414,0.39501953,0.7373047,0.8416213,0.32116985,0.39501953,0.7373047,1,0,-1,-3,-3,0,-1,1
14.246523976325989,false,-0.62109375,0.39257812,0.74658203,0.84163785,0.32111514,0.39257812,0.74658203,-2,0,-1,-1,1,-1,0,0
14.255769968032837,false,-0.6220703,0.38427734,0.7475586,0.84163785,0.32111514,0.38427734,0.7475586,0,-2,-1,1,-4,0,1,-1
14.285776972770691,false,-0.62402344,0.3876953,0.7441406,0.8416543,0.3210604,0.3876953,0.7441406,-2,5,1,-4,-3,0,-2,-1
14.28705096244812,false,-0.62353516,0.38720703,0.7470703,0.84164053,0.3209941,0.38720703,0.7470703,1,-2,0,-2,1,-2,-2,0
14.315754055976868,false,-0.6171875,0.39111328,0.73535156,0.84164053,0.3209941,0.39111328,0.73535156,-1,0,-1,-2,-2,0,-3,-3
14.34567105770111,false,-0.62402344,0.3930664,0.73828125,0.84164053,0.3209941,0.3930664,0.73828125,0,-3,-2,-4,-2,1,0,0
14.347225069999695,false,-0.62109375,0.39111328,0.73291016,0.84164053,0.3209941,0.39111328,0.73291016,-1,-3,-1,-2,-1,1,-1,-1
14.375668048858643,false,-0.6196289,0.38671875,0.7368164,0.841657,0.32093933,0.38671875,0.7368164,-1,2,-1,3,-5,-1,-1,-2
14.405696988105774,false,-0.6220703,0.3959961,0.73583984,0.841657,0.32093933,0.3959961,0.73583984,1,-3,-2,-1,-2,-3,0,-1
14.407168984413147,false,-0.6220703,0.3930664,0.73828125,0.841657,0.32093933,0.3930664,0.73828125,0,-3,0,-5,1,-2,1,-1
14.435770988464355,false,-0.6254883,0.39257812,0.7392578,0.84164625,0.32093525,0.39257812,0.7392578,-2,0,-1,-2,1,0,-1,-1
14.465667009353638,false,-0.62109375,0.38916016,0.73779297,0.8416267,0.3209278,0.38916016,0.73779297,3,0,0,1,1,0,1,-1
14.468538045883179,false,-0.6166992,0.39013672,0.73876953,0.8416433,0.32087305,0.39013672,0.73876953,1,-1,-1,-6,1,-2,-3,1
14.49590003490448,false,-0.6176758,0.390625,0.7451172,0.8416433,0.32087305,0.390625,0.7451172,-4,6,0,-3,2,1,-2,0
14.525405049324036,false,-0.6166992,0.39257812,0.74609375,0.8416597,0.3208183,0.39257812,0.74609375,0,-3,-1,-3,1,0,1,-2
14.527469992637634,false,-0.61865234,0.38671875,0.74658203,0.8416775,0.32080182,0.38671875,0.74658203,1,-12,1,-2,1,-1,-1,0
14.555745005607605,false,-0.62060547,0.3876953,0.7451172,0.841694,0.32074705,0.3876953,0.7451172,0,3,-2,3,-1,-3,-1,0
14.585437059402466,false,-0.62109375,0.38183594,0.7392578,0.8416744,0.3207396,0.38183594,0.7392578,-2,0,-1,-1,-1,2,0,-1
14.587380051612854,false,-0.6245117,0.3857422,0.7426758,0.84169096,0.32068488,0.3857422,0.7426758,0,-1,-1,1,1,0,-1,0
14.615993022918701,false,-0.6201172,0.39111328,0.7426758,0.84169096,0.32068488,0.39111328,0.7426758,0,-1,-1,-1,0,-2,0,-1
14.645557045936584,false,-0.62060547,0.39013672,0.73876953,0.8417074,0.3206301,0.39013672,0.73876953,0,-1,0,-1,1,2,-1,-1
14.647431015968323,false,-0.6245117,0.38964844,0.73535156,0.8416967,0.32062602,0.38964844,0.73535156,1,2,-1,-2,2,0,0,-2
14.675904035568237,false,-0.62060547,0.3876953,0.7416992,0.8416967,0.32062602,0.3876953,0.7416992,-1,-2,0,0,1,-3,-1,-1
14.706330060958862,false,-0.62109375,0.38720703,0.74316406,0.8416936,0.3205638,0.38720703,0.74316406,0,0,-2,-4,0,0,0,-1
14.709128975868225,false,-0.62109375,0.38623047,0.74609375,0.8416936,0.3205638,0.38623047,0.74609375,0,1,1,-4,-1,1,-1,-1
14.73600697517395,false,-0.6225586,0.38867188,0.74658203,0.84171003,0.32050902,0.38867188,0.74658203,-2,-3,-2,-2,-4,-2,0,0
14.766057968139648,false,-0.62353516,0.38916016,0.7480469,0.84171003,0.32050902,0.38916016,0.7480469,-1,1,-2,-2,-2,-2,1,-2
14.768383026123047,false,-0.62060547,0.3876953,0.7373047,0.84171575,0.32045016,0.3876953,0.7373047,0,-1,1,-2,0,1,-1,1
14.795768022537231,false,-0.6201172,0.38623047,0.73828125,0.8416962,0.3204427,0.38623047,0.73828125,0,-1,0,0,1,-1,0,1
14.825613021850586,false,-0.62109375,0.38916016,0.73583984,0.8416962,0.3204427,0.38916016,0.73583984,2,-2,-3,-1,-3,-2,0,0
14.828060984611511,false,-0.62060547,0.39013672,0.7416992,0.84171265,0.32038793,0.39013672,0.7416992,1,2,-3,-2,1,-1,-3,-2
14.85571300983429,false,-0.61865234,0.3857422,0.74316406,0.84171265,0.32038793,0.3857422,0.74316406,-3,1,-1,-1,3,0,-1,0
14.885773062705994,false,-0.6196289,0.38916016,0.74560547,0.8417291,0.32033315,0.38916016,0.74560547,-1,-3,0,-3,-3,0,0,0
14.887804985046387,false,-0.6201172,0.38427734,0.74121094,0.8417095,0.3203257,0.38427734,0.74121094,2,-4,-1,-1,-1,-1,0,-1
14.915560007095337,false,-0.6220703,0.390625,0.7397461,0.8417095,0.3203257,0.390625,0.7397461,-3,-1,-1,-1,3,-3,0,0
14.946017980575562,false,-0.625,0.38720703,0.734375,0.8417152,0.32026684,0.38720703,0.734375,-1,-1,-2,2,0,-3,-1,-2
14.947955012321472,false,-0.6230469,0.39208984,0.7373047,0.8417152,0.32026684,0.39208984,0.7373047,0,-1,2,0,0,-1,-1,-1
14.975980997085571,false,-0.6225586,0.39160156,0.7426758,0.8417152,0.32026684,0.39160156,0.7426758,1,-2,0,-2,1,3,-2,0
15.006149053573608,false,-0.625,0.39013672,0.73535156,0.8417152,0.32026684,0.39013672,0.73535156,-3,-1,-1,-4,1,-1,-1,0
15.008790969848633,false,-0.6274414,0.3857422,0.74121094,0.8417045,0.32026276,0.3857422,0.74121094,0,-1,-2,1,1,1,0,-1
15.036792039871216,false,-0.62402344,0.390625,0.7392578,0.84172094,0.32020798,0.390625,0.7392578,0,1,-2,-1,0,-1,-1,-2
15.066202044487,false,-0.6171875,0.39257812,0.7373047,0.84172094,0.32020798,0.39257812,0.7373047,1,-1,-1,-4,-1,0,-1,-2
15.069241046905518,false,-0.6152344,0.38867188,0.74121094,0.8417014,0.32020053,0.38867188,0.74121094,-1,-1,-1,-4,-2,-1,0,-2
15.096590995788574,false,-0.6191406,0.3852539,0.7421875,0.84171784,0.32014576,0.3852539,0.7421875,0,0,-1,-3,-1,0,-2,1
15.126175045967102,false,-0.6230469,0.3930664,0.74121094,0.84164625,0.3202028,0.3930664,0.74121094,-1,-2,0,0,-2,-4,1,-2
15.1283700466156,false,-0.61816406,0.39746094,0.74365234,0.84164625,0.3202028,0.39746094,0.74365234,-1,-2,0,0,-1,-1,-1,0
15.156545996665955,false,-0.6201172,0.38720703,0.7416992,0.84164625,0.3202028,0.38720703,0.7416992,2,0,1,-1,2,-1,-2,1
15.185654997825623,false,-0.6220703,0.38623047,0.7416992,0.8416323,0.32013646,0.38623047,0.7416992,0,0,-3,2,-4,2,0,-2
15.188369035720825,false,-0.6245117,0.39013672,0.7446289,0.8416323,0.32013646,0.39013672,0.7446289,-2,0,1,-1,3,0,-1,-1
15.216433048248291,false,-0.62890625,0.3881836,0.75439453,0.84164876,0.32008168,0.3881836,0.75439453,0,1,-2,1,4,-2,0,0
15.24577796459198,false,-0.61621094,0.37890625,0.75097656,0.8416652,0.3200269,0.37890625,0.75097656,-2,-1,0,-3,0,1,-2,0
15.248412013053894,false,-0.6220703,0.3828125,0.7504883,0.84167993,0.31994823,0.3828125,0.7504883,1,-3,-1,2,-3,-1,0,-1
15.276363015174866,false,-0.61865234,0.390625,0.7338867,0.84161085,0.3201283,0.390625,0.7338867,-1,-2,-1,0,2,-1,-1,-1
15.306189060211182,false,-0.62060547,0.39013672,0.73583984,0.84152985,0.32026598,0.39013672,0.73583984,-1,1,-2,-2,0,-1,-2,1
15.308390974998474,false,-0.62597656,0.39160156,0.7338867,0.84145886,0.3204453,0.39160156,0.7338867,0,-2,1,-4,-1,-2,1,0
15.336331963539124,false,-0.62890625,0.390625,0.7363281,0.8414386,0.32049862,0.390625,0.7363281,0,-1,-2,1,0,-1,0,0
15.365746021270752,false,-0.6230469,0.3857422,0.7397461,0.84145504,0.32044384,0.3857422,0.7397461,1,-2,0,-1,-2,-1,-1,-2
15.368268966674805,false,-0.62646484,0.38916016,0.7392578,0.8414443,0.32043976,0.38916016,0.7392578,0,1,-2,-2,-2,0,0,0
15.397109031677246,false,-0.6254883,0.39208984,0.73339844,0.8414068,0.32044876,0.39208984,0.73339844,-1,0,-1,-2,2,1,1,-2
15.425734996795654,false,-0.625,0.38964844,0.7392578,0.8414068,0.32044876,0.38964844,0.7392578,-5,-1,-1,-1,-4,1,-1,1
15.428331017494202,false,-0.6196289,0.38916016,0.73828125,0.84142464,0.32043228,0.38916016,0.73828125,4,1,0,2,2,-3,-3,0
15.45647406578064,false,-0.61816406,0.38867188,0.73583984,0.8414412,0.32037756,0.38867188,0.73583984,-1,0,-2,-3,-3,0,-1,0
15.485767006874084,false,-0.61816406,0.39013672,0.74121094,0.8414412,0.32037756,0.39013672,0.74121094,-2,0,-2,-4,-6,-2,-1,0
15.488409996032715,false,-0.61621094,0.3935547,0.7470703,0.8414412,0.32037756,0.3935547,0.7470703,-2,-4,0,-2,-4,0,-1,0
15.516451001167297,false,-0.6254883,0.38476562,0.74902344,0.84145766,0.32032278,0.38476562,0.74902344,-3,-2,-2,-3,0,-1,-1,-1
15.546097040176392,false,-0.625,0.3828125,0.73828125,0.84145445,0.32026052,0.3828125,0.73828125,1,-1,-2,0,-2,-3,-1,0
15.548320055007935,false,-0.62646484,0.38134766,0.7416992,0.84145445,0.32026052,0.38134766,0.7416992,-1,0,0,0,2,-3,-1,-1
15.576349020004272,false,-0.62597656,0.3857422,0.7368164,0.8414437,0.32025644,0.3857422,0.7368164,0,0,-2,-1,3,2,0,0
15.605906009674072,false,-0.6269531,0.3876953,0.7314453,0.8413886,0.32025868,0.3876953,0.7314453,-1,1,1,0,1,-3,0,0
15.608224987983704,false,-0.6230469,0.38671875,0.7363281,0.8413183,0.3201331,0.38671875,0.7363281,1,-4,-1,2,3,0,-1,-1
15.63665497303009,false,-0.6308594,0.3857422,0.7319336,0.8412597,0.31982884,0.3857422,0.7319336,0,-1,0,-2,1,-1,1,-3
15.666419982910156,false,-0.63378906,0.38720703,0.7373047,0.8411174,0.31933287,0.38720703,0.7373047,1,-1,-1,0,1,1,-1,-1
15.668995022773743,false,-0.62060547,0.3935547,0.7109375,0.84083503,0.3190974,0.3935547,0.7109375,0,0,0,6,-4,-1,-1,0
15.696552991867065,false,-0.6308594,0.42626953,0.71435547,0.8402729,0.31927562,0.42626953,0.71435547,2,-1,0,-4,-2,2,0,-1
15.725749969482422,false,-0.61572266,0.42285156,0.734375,0.84042054,0.31782043,0.42285156,0.734375,-5,-2,-3,-9,-3,-3,-1,-1
15.728285074234009,false,-0.61035156,0.37841797,0.77490234,0.8411411,0.31494728,0.37841797,0.77490234,-1,-1,0,-4,2,3,-1,0
15.756585001945496,false,-0.6098633,0.34521484,0.7836914,0.8417605,0.312265,0.34521484,0.7836914,-2,1,-1,4,-1,-3,0,-1
15.785768985748291,false,-0.6035156,0.35058594,0.77685547,0.842073,0.3104366,0.35058594,0.77685547,1,-1,0,0,-1,-2,-1,-1
15.788426041603088,false,-0.6044922,0.35546875,0.7680664,0.84223354,0.30914652,0.35546875,0.7680664,-1,-1,-1,-4,1,-2,-1,1
15.81636905670166,false,-0.60595703,0.36621094,0.7636719,0.8422491,0.30817565,0.36621094,0.7636719,1,-1,0,-2,-2,-2,0,-2
15.845785975456238,false,-0.60253906,0.37939453,0.75878906,0.842062,0.30780795,0.37939453,0.75878906,-1,0,-1,-3,-4,-2,-3,1
15.848286032676697,false,-0.61035156,0.3984375,0.7709961,0.84212446,0.307015,0.3984375,0.7709961,-2,-2,-3,-2,-3,-2,0,-3
15.877155065536499,false,-0.6254883,0.39794922,0.7919922,0.84243774,0.30579722,0.39794922,0.7919922,-3,0,0,-1,1,3,-1,0
15.907633066177368,false,-0.63964844,0.3803711,0.80126953,0.84273964,0.30457526,0.3803711,0.80126953,-3,-2,0,-1,-3,0,0,-1
15.910348057746887,false,-0.61572266,0.36621094,0.8125,0.84329236,0.303722,0.36621094,0.8125,-2,2,1,-3,-3,-2,-1,-1
15.936395049095154,false,-0.61816406,0.34033203,0.82177734,0.84365636,0.30420947,0.34033203,0.82177734,-7,-2,-3,6,-1,1,-2,-2
15.96577000617981,false,-0.61376953,0.36328125,0.79589844,0.8435725,0.30768028,0.36328125,0.79589844,-9,1,1,13,-1,-5,-21,-3
15.968307971954346,false,-0.65527344,0.45166016,0.74316406,0.8428253,0.31349584,0.45166016,0.74316406,-6,-2,-2,14,11,-4,1,1
15.996868968009949,false,-0.58935547,0.515625,0.7270508,0.84215784,0.32244673,0.515625,0.7270508,12,-1,1,-16,5,-1,-1,-5
16.02578103542328,false,-0.6015625,0.63378906,0.7285156,0.8426054,0.3270322,0.63378906,0.7285156,53,4,-4,32,17,2,11,8
16.055837988853455,false,-0.4975586,0.61083984,0.71875,0.8450443,0.32788575,0.61083984,0.71875,-7,0,-1,-8,-9,0,4,2
16.057131052017212,false,-0.5263672,0.57128906,0.73339844,0.84834635,0.32715565,0.57128906,0.73339844,-15,-2,-1,-10,-7,1,1,0
16.085698008537292,false,-0.5185547,0.5258789,0.7421875,0.852053,0.32580653,0.5258789,0.7421875,-5,-4,0,-9,-4,-2,-2,-1
16.088356018066406,false,-0.5151367,0.49121094,0.7426758,0.85596806,0.324345,0.49121094,0.7426758,-4,-3,-2,-4,-3,2,1,-1
16.116628050804138,false,-0.51904297,0.4741211,0.76171875,0.85975575,0.32294247,0.4741211,0.76171875,-4,-2,0,-2,1,2,0,-3
16.145820021629333,false,-0.53564453,0.4555664,0.78271484,0.86318946,0.32215485,0.4555664,0.78271484,-2,0,-2,-6,2,0,-1,-1
16.176212072372437,false,-0.55029297,0.43652344,0.81591797,0.866493,0.32148623,0.43652344,0.81591797,0,-4,1,-2,-2,-1,1,-3
16.236451983451843,false,-0.5595703,0.44580078,0.8256836,0.8697292,0.3208763,0.44580078,0.8256836,-1,-1,-2,-1,7,-2,-1,-2
16.238741993904114,false,-0.55859375,0.4663086,0.85498047,0.8729348,0.32031617,0.4663086,0.85498047,-2,0,1,-1,-7,-1,-3,0
16.265686988830566,false,-0.50439453,0.47216797,0.8515625,0.88417953,0.31427863,0.47216797,0.8515625,1,-2,-3,-5,-1,-2,-1,1
16.295477986335754,false,-0.5029297,0.45996094,0.86865234,0.8889836,0.30908433,0.45996094,0.86865234,-5,-2,-5,-4,-3,2,-1,0
16.29829204082489,false,-0.51220703,0.4008789,0.8857422,0.8944889,0.30084857,0.4008789,0.8857422,2,0,-4,-3,0,-1,-2,-1
16.32647407054901,false,-0.5214844,0.3515625,0.9296875,0.9003548,0.28986406,0.3515625,0.9296875,-1,-1,9,0,-2,-1,-2,-1
16.355854034423828,false,-0.55908203,0.31640625,0.97314453,0.9057898,0.27814582,0.31640625,0.97314453,-3,1,2,9,2,0,0,-2
16.35730504989624,false,-0.55615234,0.32714844,0.96875,0.91020745,0.26832566,0.32714844,0.96875,0,-3,-6,-7,-3,0,-1,0
16.386034965515137,false,-0.5444336,0.30322266,0.9711914,0.9142104,0.2593457,0.30322266,0.9711914,2,-5,-9,1,-2,-2,1,2
16.415454983711243,false,-0.5053711,0.3461914,0.92089844,0.9173401,0.25214797,0.3461914,0.92089844,1,1,-4,-2,0,2,0,1
16.445682048797607,false,-0.5239258,0.35595703,0.91308594,0.9195013,0.24786557,0.35595703,0.91308594,-7,-2,-2,0,-1,-1,1,1
16.447846055030823,false,-0.5605469,0.39208984,0.8588867,0.92053574,0.24658297,0.39208984,0.8588867,3,0,4,5,3,2,-2,-2
16.475463032722473,false,-0.55859375,0.3330078,0.8457031,0.92084813,0.24652387,0.3330078,0.8457031,2,2,1,-4,0,-2,-1,-3
16.477640986442566,false,-0.5761719,0.28173828,0.8417969,0.9205574,0.24561217,0.28173828,0.8417969,5,-1,-8,3,5,1,1,0
16.50653600692749,false,-0.58447266,0.2939453,0.90234375,0.9193467,0.24457723,0.2939453,0.90234375,-6,-1,11,2,2,1,-3,-4
16.53573703765869,false,-0.5991211,0.3251953,0.92529297,0.91762954,0.24213359,0.3251953,0.92529297,-4,-3,5,-6,0,-2,-3,-3
16.538135051727295,false,-0.5703125,0.27783203,0.9301758,0.9157777,0.23675698,0.27783203,0.9301758,13,1,12,-2,-2,-4,-3,-1
16.566004037857056,false,-0.54003906,0.25585938,0.95996094,0.91312134,0.23029457,0.25585938,0.95996094,-9,-2,12,-7,-7,-4,-3,-3
16.595826983451843,false,-0.5541992,0.24853516,0.9658203,0.909445,0.22424838,0.24853516,0.9658203,15,0,-16,1,2,-1,3,3
16.598185062408447,false,-0.5463867,0.24121094,0.9355469,0.90445304,0.21973483,0.24121094,0.9355469,-23,15,36,-1,-1,1,-4,-7
16.626293063163757,false,-0.4951172,0.27001953,0.8935547,0.89831245,0.21679614,0.27001953,0.8935547,0,-10,-21,-10,-1,2,3,4
16.656334042549133,false,-0.5058594,0.30615234,0.8696289,0.8908554,0.2155876,0.30615234,0.8696289,0,-8,-14,-3,1,-3,1,-1
16.657827973365784,false,-0.46044922,0.30273438,0.8261719,0.8825025,0.21484257,0.30273438,0.8261719,1,0,-6,1,0,-4,1,3
16.685659050941467,false,-0.3881836,0.26416016,0.7480469,0.8731885,0.21387199,0.26416016,0.7480469,-5,1,0,-9,-10,0,-2,-3
16.715592980384827,false,-0.41015625,0.3305664,0.74609375,0.86261284,0.21386793,0.3305664,0.74609375,-1,2,-1,6,1,-1,-2,-2
16.717897057533264,false,-0.4663086,0.3725586,0.6816406,0.8517162,0.2128375,0.3725586,0.6816406,6,-2,-5,7,5,-2,3,3
16.745737075805664,false,-0.47460938,0.40185547,0.67822266,0.8402733,0.21173154,0.40185547,0.67822266,12,-3,-9,0,-8,2,-1,2
16.775511980056763,false,-0.4975586,0.35253906,0.6723633,0.8283785,0.20996332,0.35253906,0.6723633,-9,-1,2,1,0,-4,-6,-6
16.777377009391785,false,-0.5,0.21533203,0.68896484,0.8154514,0.20819645,0.21533203,0.68896484,4,-4,-9,-29,-7,-1,-1,-1
16.80600607395172,false,-0.5449219,0.1381836,0.6611328,0.800437,0.20953944,0.1381836,0.6611328,2,-2,-8,13,16,4,-1,1
16.83549201488495,false,-0.62597656,0.21386719,0.7133789,0.78338856,0.21508853,0.21386719,0.7133789,0,1,4,2,-1,-2,2,1
16.83738398551941,false,-0.71533203,0.21826172,0.7109375,0.76575226,0.22284088,0.21826172,0.7109375,-1,-1,-3,-8,2,-2,-1,0
16.86578607559204,false,-0.7583008,0.18603516,0.6899414,0.747263,0.23193657,0.18603516,0.6899414,0,2,9,7,-2,-2,-1,-1
16.895542979240417,false,-0.77685547,0.15185547,0.6298828,0.72715014,0.2422613,0.15185547,0.6298828,4,0,6,0,-7,2,3,-1
16.89766800403595,false,-0.76904297,0.17822266,0.5498047,0.7059402,0.25403103,0.17822266,0.5498047,1,-4,-8,-6,-12,2,1,3
16.926010966300964,false,-0.81591797,0.38378906,0.5913086,0.6840352,0.26825508,0.38378906,0.5913086,-4,1,-1,12,20,-2,-1,-2
16.95598602294922,false,-0.86865234,0.421875,0.6074219,0.66407484,0.28363565,0.421875,0.6074219,-1,0,0,-15,-22,-5,1,-1
16.985828042030334,false,-0.9003906,0.31591797,0.58203125,0.6455113,0.2999284,0.31591797,0.58203125,-8,3,2,2,9,3,0,-3
16.98901104927063,false,-0.85009766,0.33007812,0.58154297,0.62855285,0.31836587,0.33007812,0.58154297,-1,2,9,0,12,-3,-4,-3
17.015496015548706,false,-0.7871094,0.38476562,0.5258789,0.61131996,0.33666542,0.38476562,0.5258789,1,-3,-7,0,2,-3,1,2
17.017428040504456,false,-0.72314453,0.4296875,0.4741211,0.59521526,0.35546902,0.4296875,0.4741211,-5,-2,4,15,11,1,-3,-3
17.04575800895691,false,-0.63378906,0.4794922,0.6142578,0.581302,0.3728048,0.4794922,0.6142578,3,3,0,-2,8,4,4,1
17.07548201084137,false,-0.5317383,0.5395508,0.92285156,0.57186854,0.3903404,0.5395508,0.92285156,-10,-2,4,-3,-3,-1,-5,-3
17.105484008789062,false,-0.6894531,0.45996094,0.89990234,0.5711186,0.402902,0.45996094,0.89990234,13,-3,5,-5,-4,1,-2,1
17.107460975646973,false,-0.6557617,0.19384766,0.81689453,0.57343185,0.40558326,0.19384766,0.81689453,2,4,30,-16,-36,1,3,4
17.13577699661255,false,-0.6201172,0.1303711,0.7011719,0.57491404,0.41072264,0.1303711,0.7011719,-10,-5,-7,13,7,-2,-3,-2
17.16586196422577,false,-0.7241211,0.25976562,0.7001953,0.5766195,0.41932636,0.25976562,0.7001953,0,-1,-11,11,-4,-4,-3,-1
17.16781497001648,false,-0.7817383,0.34521484,0.68115234,0.5814341,0.42499742,0.34521484,0.68115234,18,4,-2,1,4,2,3,4
17.196063995361328,false,-0.796875,0.265625,0.6411133,0.5877061,0.4293813,0.265625,0.6411133,-12,-5,-9,-20,-11,-2,-3,-3
17.19902205467224,false,-0.83447266,0.059570312,0.65527344,0.5943777,0.43031043,0.059570312,0.65527344,5,-6,-16,-1,2,-1,0,-3
17.2256680727005,false,-0.8955078,-0.030761719,0.73046875,0.5985311,0.42988527,-0.030761719,0.73046875,22,5,-4,15,-5,1,4,0
17.255948066711426,false,-0.95703125,0.021972656,0.58740234,0.6000616,0.4316586,0.021972656,0.58740234,-9,3,8,14,10,-2,-4,-4
17.258080005645752,false,-0.9477539,0.15966797,0.47802734,0.601386,0.43524647,0.15966797,0.47802734,-16,-6,0,-23,-12,0,2,3
17.285701036453247,false,-0.89746094,0.23828125,0.4350586,0.60390705,0.43770137,0.23828125,0.4350586,0,-2,-8,14,49,-8,-9,-3
17.3163480758667,false,-0.8383789,0.33496094,0.34277344,0.6081058,0.43818042,0.33496094,0.34277344,-4,-2,-7,-20,-23,7,4,2
17.318717002868652,false,-0.85839844,0.27392578,0.40576172,0.6152576,0.4358075,0.27392578,0.40576172,-7,-5,-3,4,4,-5,-5,-8
17.345708966255188,false,-0.9711914,0.14990234,0.46533203,0.6224432,0.43048558,0.14990234,0.46533203,1,4,7,0,-22,-1,-3,-1
17.375709056854248,false,-0.9394531,0.05419922,0.49658203,0.62794846,0.42445117,0.05419922,0.49658203,2,-3,-1,-2,-10,-1,-3,-2
17.377959966659546,false,-0.8652344,0.07470703,0.4897461,0.6307134,0.42202193,0.07470703,0.4897461,-3,-3,-5,-3,-1,0,3,2
17.406242966651917,false,-0.8730469,0.2006836,0.50097656,0.63155013,0.42445147,0.2006836,0.50097656,0,0,0,-12,-3,0,0,0
17.43635904788971,false,-0.921875,0.25390625,0.4794922,0.6323931,0.42804486,0.25390625,0.4794922,2,1,-1,16,10,0,0,-3
17.43912696838379,false,-0.90283203,0.22460938,0.41455078,0.632437,0.43169534,0.22460938,0.41455078,-8,3,7,-5,-1,-3,-1,0
17.46617603302002,false,-0.8857422,0.16845703,0.35986328,0.6310789,0.4364876,0.16845703,0.35986328,0,-3,-6,-8,1,-2,-2,-7
17.49633300304413,false,-0.8701172,0.16796875,0.39111328,0.62800837,0.44367704,0.16796875,0.39111328,2,-3,-2,-3,-8,-4,0,3
17.498637080192566,false,-0.8930664,0.20654297,0.4580078,0.62442964,0.45120075,0.20654297,0.4580078,8,5,1,-1,-1,0,2,-2
17.526148080825806,false,-0.9506836,0.28173828,0.46142578,0.6216488,0.4556316,0.28173828,0.46142578,-4,4,5,4,10,0,1,-3
17.55656898021698,false,-0.9003906,0.30615234,0.41308594,0.62042785,0.4563639,0.30615234,0.41308594,-3,-3,-5,-13,-4,-3,0,8
17.559450030326843,false,-0.8540039,0.2836914,0.36914062,0.62013227,0.454784,0.2836914,0.36914062,6,-10,0,-3,4,-6,-1,-11
17.585927963256836,false,-0.8041992,0.25,0.36621094,0.6196244,0.4543424,0.25,0.36621094,-15,-3,4,-11,-9,6,-4,-1
17.61536407470703,false,-0.79833984,0.22509766,0.35302734,0.6183646,0.45612857,0.22509766,0.35302734,8,9,-3,14,9,3,1,13
17.617426991462708,false,-0.87060547,0.25732422,0.35205078,0.61695856,0.45771393,0.25732422,0.35205078,-9,-4,2,-4,-3,-5,-4,-8
17.64534902572632,false,-1.0029297,0.35986328,0.27441406,0.6159302,0.45918572,0.35986328,0.27441406,10,-1,-3,-13,-12,-7,3,9
17.67574906349182,false,-1.3549805,0.47851562,0.32177734,0.6153165,0.4627234,0.47851562,0.32177734,-2,-3,-6,-4,8,13,0,-4
17.677909016609192,false,-1.7646484,0.06347656,0.36083984,0.61628705,0.4631461,0.06347656,0.36083984,0,-9,-2,-1,-17,8,-2,-10
17.705502033233643,false,-1.6289062,0.016113281,0.4819336,0.61536556,0.45893013,0.016113281,0.4819336,23,15,-3,45,-13,-8,0,9
17.73588001728058,false,-0.8959961,0.13916016,0.4609375,0.61264044,0.45778653,0.13916016,0.4609375,-5,-3,-1,-11,4,-7,-3,8
17.737869024276733,false,-0.47216797,0.27783203,0.38964844,0.60982764,0.46126187,0.27783203,0.38964844,-6,-4,-2,-13,-2,2,-2,-6
17.7660710811615,false,-0.48388672,0.42871094,0.35595703,0.6065844,0.46565032,0.42871094,0.35595703,-11,-2,-1,-21,-4,-1,-2,4
17.796131014823914,false,-0.7919922,0.46972656,0.4267578,0.6052798,0.4689896,0.46972656,0.4267578,-6,-4,-1,-8,6,0,0,-12
17.799203991889954,false,-1.0205078,0.38378906,0.51171875,0.60585195,0.4683969,0.38378906,0.51171875,11,0,-5,16,6,0,1,3
17.826122999191284,false,-0.95654297,0.27783203,0.51464844,0.6069589,0.46419173,0.27783203,0.51464844,2,4,-4,-1,-2,-2,0,1
17.856289982795715,false,-0.8305664,0.25390625,0.5,0.6074931,0.46009073,0.25390625,0.5,-6,-3,-4,-12,4,-2,-1,1
17.858705043792725,false,-0.84814453,0.27197266,0.5019531,0.607187,0.45764858,0.27197266,0.5019531,-1,-5,1,-1,0,0,0,-2
17.885668992996216,false,-0.88183594,0.30371094,0.5390625,0.6068919,0.4549095,0.30371094,0.5390625,1,-1,-1,-6,-7,1,-2,-2
17.915839076042175,false,-0.8408203,0.32617188,0.51953125,0.60681766,0.4507492,0.32617188,0.51953125,6,1,0,12,2,0,1,1
17.91812801361084,false,-0.7426758,0.35058594,0.49072266,0.6061286,0.44737917,0.35058594,0.49072266,-7,1,-4,-15,-5,-2,-2,0
17.94562602043152,false,-0.7758789,0.3544922,0.54541016,0.6052997,0.4462384,0.3544922,0.54541016,-5,-5,1,-13,-5,0,-1,-5
17.97575604915619,false,-0.8779297,0.3564453,0.6035156,0.60499054,0.44446543,0.3564453,0.6035156,8,-1,2,16,5,-1,0,1
17.977828979492188,false,-0.8510742,0.3413086,0.6123047,0.6054201,0.44068286,0.3413086,0.6123047,1,0,0,-1,1,-1,-2,-1
18.005805015563965,false,-0.7890625,0.3095703,0.6015625,0.60619813,0.4363992,0.3095703,0.6015625,4,-2,-1,-3,1,-1,0,-2
18.035771012306213,false,-0.74902344,0.30664062,0.6196289,0.60633796,0.4334212,0.30664062,0.6196289,-4,-3,0,-5,-2,-2,-2,-2
18.037744998931885,false,-0.7885742,0.3305664,0.6743164,0.6065898,0.43183967,0.3305664,0.6743164,-1,-1,-3,1,-3,-1,1,-1
18.06640100479126,false,-0.7993164,0.3540039,0.67529297,0.6072378,0.42999202,0.3540039,0.67529297,2,-2,1,4,1,0,0,0
18.09648096561432,false,-0.75097656,0.3359375,0.64404297,0.6085189,0.4276722,0.3359375,0.64404297,-4,-6,-1,-8,-8,-2,0,-1
18.098644971847534,false,-0.7651367,0.28857422,0.6308594,0.60949236,0.4262052,0.28857422,0.6308594,-4,6,0,-2,-7,0,-2,0
18.12564706802368,false,-0.7861328,0.2890625,0.63623047,0.6095797,0.42622358,0.2890625,0.63623047,-5,-4,-2,-2,-4,0,0,-1
18.155819058418274,false,-0.77685547,0.3310547,0.61083984,0.60930777,0.4271197,0.3310547,0.61083984,0,-1,-2,-6,3,-2,0,1
18.158006072044373,false,-0.7553711,0.359375,0.58740234,0.60919315,0.42797938,0.359375,0.58740234,1,1,2,-4,-3,-2,-1,0
18.185680031776428,false,-0.7626953,0.37304688,0.5756836,0.6093092,0.42864653,0.37304688,0.5756836,-1,2,0,-1,0,2,0,-3
18.216024041175842,false,-0.77441406,0.35351562,0.60253906,0.6096341,0.42872146,0.35351562,0.60253906,3,-2,-3,4,1,-2,-2,1
18.217714071273804,false,-0.7739258,0.35205078,0.60546875,0.6100471,0.42840627,0.35205078,0.60546875,1,9,2,-2,0,1,-3,-2
18.246132969856262,false,-0.75634766,0.34228516,0.6123047,0.6104889,0.42774507,0.34228516,0.6123047,-2,8,-3,-1,-3,1,0,0
18.27709996700287,false,-0.7758789,0.34521484,0.62597656,0.6108616,0.4273834,0.34521484,0.62597656,0,0,-2,-2,-2,-1,-1,-1
18.279532074928284,false,-0.77246094,0.34179688,0.6352539,0.61145747,0.4267629,0.34179688,0.6352539,0,-3,-2,2,-2,-1,0,1
18.305917978286743,false,-0.7548828,0.34326172,0.6333008,0.61213416,0.4263393,0.34326172,0.6333008,-4,-3,-1,-4,-1,-1,0,-2
18.336942076683044,false,-0.75,0.33203125,0.63183594,0.61299247,0.4259147,0.33203125,0.63183594,2,-3,-2,0,1,0,-2,0
18.33837902545929,false,-0.75927734,0.3305664,0.6201172,0.6137658,0.42553452,0.3305664,0.6201172,2,-1,0,-5,-1,1,0,0
18.365844011306763,false,-0.7705078,0.33447266,0.60058594,0.6143955,0.42554793,0.33447266,0.60058594,1,-10,1,1,-4,-3,-1,0
18.395753026008606,false,-0.7841797,0.33544922,0.6044922,0.6150109,0.42567348,0.33544922,0.6044922,1,2,-4,-4,2,-4,0,-2
18.39802098274231,false,-0.7861328,0.3388672,0.60253906,0.61573154,0.42560428,0.3388672,0.60253906,2,-4,-1,-1,3,-1,-1,1
18.425655007362366,false,-0.77978516,0.33398438,0.60498047,0.616485,0.4253136,0.33398438,0.60498047,2,-11,3,0,-1,-1,-2,-1
18.457625031471252,false,-0.7832031,0.3232422,0.5957031,0.6170716,0.42517516,0.3232422,0.5957031,-4,6,-2,-1,0,-1,-1,-1
18.458315014839172,false,-0.7915039,0.32617188,0.6035156,0.61756957,0.42505974,0.32617188,0.6035156,-2,-8,-2,-3,-4,-1,-1,-2
18.4860600233078,false,-0.7939453,0.3178711,0.6020508,0.61799055,0.4248723,0.3178711,0.6020508,-9,2,0,-3,-9,0,0,2
18.51571500301361,false,-0.7792969,0.3251953,0.60546875,0.61823183,0.42487034,0.3251953,0.60546875,-2,-6,-1,-6,-1,-1,-2,-1
18.517961025238037,false,-0.78564453,0.31933594,0.59765625,0.61848456,0.42487624,0.31933594,0.59765625,3,1,-2,-6,-6,-1,1,0
18.545919060707092,false,-0.7949219,0.3173828,0.6010742,0.61874074,0.42482346,0.3173828,0.6010742,3,6,2,2,1,0,-1,-3
18.576117992401123,false,-0.78759766,0.3154297,0.5996094,0.6190233,0.42462486,0.3154297,0.5996094,6,0,-3,5,3,-3,1,0
18.577818036079407,false,-0.7890625,0.31835938,0.60595703,0.6192874,0.4245164,0.31835938,0.60595703,0,-1,-6,-4,-2,-2,-2,-1
18.605815052986145,false,-0.79345703,0.3173828,0.6088867,0.619512,0.42450306,0.3173828,0.6088867,-2,0,-6,-8,-3,0,-1,-1
18.635897994041443,false,-0.78027344,0.3095703,0.61376953,0.6199335,0.4244991,0.3095703,0.61376953,2,-1,-1,6,3,-1,0,0
18.638355016708374,false,-0.77783203,0.3173828,0.6098633,0.6202515,0.424752,0.3173828,0.6098633,0,3,0,-7,0,0,-1,0
18.666277050971985,false,-0.7763672,0.34814453,0.62402344,0.6208996,0.4250413,0.34814453,0.62402344,-1,-1,5,1,1,-2,1,-1
18.695715069770813,false,-0.77978516,0.38134766,0.62402344,0.62215024,0.42536694,0.38134766,0.62402344,0,-7,3,2,3,1,-1,-2
18.726529002189636,false,-0.7597656,0.36914062,0.62841797,0.62419486,0.4257733,0.36914062,0.62841797,0,-2,2,-3,-10,2,1,-1
18.728950023651123,false,-0.77441406,0.36376953,0.66845703,0.62676984,0.42663565,0.36376953,0.66845703,-1,0,3,0,2,1,0,1
18.756136059761047,false,-0.77197266,0.37597656,0.6689453,0.62989384,0.42823017,0.37597656,0.6689453,4,3,0,-6,-8,-4,0,3
18.758020997047424,false,-0.76171875,0.39404297,0.61816406,0.63335955,0.43127286,0.39404297,0.61816406,-3,0,-7,3,5,0,-2,-3
18.786314010620117,false,-0.7480469,0.4194336,0.59033203,0.6375153,0.43481657,0.4194336,0.59033203,2,4,5,1,3,-2,0,-1
18.81615900993347,false,-0.7026367,0.5288086,0.6586914,0.6425399,0.43861422,0.5288086,0.6586914,-10,-3,-3,-16,2,1,1,-1
18.81861901283264,false,-0.6582031,0.5419922,0.62597656,0.6512018,0.4398313,0.5419922,0.62597656,18,-6,-7,-7,-12,-6,-6,1
18.846500992774963,false,-0.51660156,0.5708008,0.65771484,0.66340655,0.43635046,0.5708008,0.65771484,-18,1,-2,10,-8,-3,-2,-4
18.875848054885864,false,-0.51220703,0.57958984,0.6503906,0.67768115,0.430608,0.57958984,0.6503906,-5,-2,-2,-8,-5,3,0,-1
18.878440022468567,false,-0.5493164,0.53466797,0.69140625,0.6925268,0.42414674,0.53466797,0.69140625,-2,-2,5,-5,-1,-2,1,-1
18.906481981277466,false,-0.59765625,0.47070312,0.671875,0.7068071,0.4180416,0.47070312,0.671875,3,5,-1,0,0,2,0,-1
18.935741066932678,false,-0.5751953,0.4711914,0.6567383,0.7193044,0.4143706,0.4711914,0.6567383,-2,0,1,0,-3,-2,0,0
18.9379540681839,false,-0.55371094,0.48535156,0.6274414,0.7306656,0.41303268,0.48535156,0.6274414,-3,-3,0,1,1,0,-1,1
18.99591600894928,false,-0.58203125,0.5854492,0.62841797,0.7419503,0.41150284,0.5854492,0.62841797,-4,-1,-3,3,3,0,0,-1
18.998888969421387,false,-0.6015625,0.6894531,0.58154297,0.75459653,0.40693158,0.6894531,0.58154297,14,3,-1,-17,-7,-3,0,2
19.026064038276672,false,-0.4658203,0.7265625,0.46289062,0.7842549,0.39374492,0.7265625,0.46289062,-5,-1,2,-1,-7,16,1,0
19.056270003318787,false,-0.45410156,0.58447266,0.5058594,0.8005525,0.3856275,0.58447266,0.5058594,-9,-3,3,-8,2,0,-2,-2
19.05744504928589,false,-0.4897461,0.5961914,0.6723633,0.8158851,0.37696615,0.5961914,0.6723633,11,1,-1,29,6,-3,-2,-2
19.085819005966187,false,-0.46435547,0.69677734,0.65625,0.828508,0.3728103,0.69677734,0.65625,5,6,-3,-6,12,-2,0,0
19.115723967552185,false,-0.39941406,0.69970703,0.61621094,0.84090793,0.36976266,0.69970703,0.61621094,-4,1,3,-8,-7,0,-1,-1
19.117603063583374,false,-0.34472656,0.70996094,0.5410156,0.8519532,0.36799154,0.70996094,0.5410156,3,-2,-3,3,-3,-1,-2,1
19.146156072616577,false,-0.34765625,0.74365234,0.546875,0.8626745,0.36657867,0.74365234,0.546875,-1,-2,-1,2,4,-5,-2,-2
19.17553400993347,false,-0.42382812,0.74658203,0.59472656,0.8732324,0.3641622,0.74658203,0.59472656,5,-11,-2,-3,-3,2,-3,-2
19.177582025527954,false,-0.5019531,0.7211914,0.7192383,0.8847228,0.35694095,0.7211914,0.7192383,0,4,-1,0,6,-3,2,0
19.20585000514984,false,-0.5917969,0.7548828,0.7973633,0.8960074,0.34662303,0.7548828,0.7973633,0,-1,-2,-2,0,2,0,0
19.23557198047638,false,-0.5957031,0.7285156,0.83935547,0.90741104,0.3328476,0.7285156,0.83935547,-12,9,1,-9,-5,1,0,-3
19.23741102218628,false,-0.56591797,0.67871094,0.8198242,0.9186347,0.31666955,0.67871094,0.8198242,2,1,1,-1,-2,-3,-1,0
19.266103982925415,false,-0.5341797,0.5932617,0.83935547,0.9293544,0.2988998,0.5932617,0.83935547,5,-21,-3,1,-6,-2,1,1
19.29588806629181,false,-0.52490234,0.4609375,0.84814453,0.9387041,0.28230095,0.4609375,0.84814453,-2,11,3,4,0,1,0,0
19.298760056495667,false,-0.4975586,0.3720703,0.8623047,0.9459087,0.2696667,0.3720703,0.8623047,0,-2,-3,-1,0,3,14,0
19.32629907131195,false,-0.47216797,0.36572266,0.8227539,0.95042235,0.26319575,0.36572266,0.8227539,-4,-1,1,-10,-33,-6,-9,-2
19.35693907737732,false,-0.46875,0.43554688,0.8388672,0.9534798,0.2603285,0.43554688,0.8388672,-3,-3,-1,2,4,2,1,-2
19.358042001724243,false,-0.49316406,0.49414062,0.8432617,0.9561497,0.25733337,0.49414062,0.8432617,0,-5,3,6,-5,0,-6,8
19.385769963264465,false,-0.48779297,0.48339844,0.8359375,0.95867634,0.25318918,0.48339844,0.8359375,1,-1,-4,-12,-10,-7,-5,-5
19.415729999542236,false,-0.46289062,0.3408203,0.8935547,0.96186584,0.2449984,0.3408203,0.8935547,0,0,-1,-2,7,2,-2,-3
19.41766607761383,false,-0.40185547,0.26220703,0.9633789,0.9645544,0.23718652,0.26220703,0.9633789,1,2,-2,1,8,2,0,-3
19.4458509683609,false,-0.3095703,0.27929688,0.9873047,0.965979,0.23352936,0.27929688,0.9873047,5,1,-1,3,14,0,0,-2
19.475645065307617,false,-0.234375,0.3515625,0.99609375,0.9663554,0.23371492,0.3515625,0.99609375,0,0,-3,-2,2,-1,-1,1
19.477212071418762,false,-0.2109375,0.43701172,1.0375977,0.9661081,0.23621672,0.43701172,1.0375977,-6,0,-2,-3,-10,-1,-2,-2
19.505966067314148,false,-0.21533203,0.5053711,1.0634766,0.9659494,0.23828298,0.5053711,1.0634766,-5,4,3,-2,-3,-1,-1,-2
19.535503029823303,false,-0.20361328,0.5073242,1.0654297,0.96637285,0.2379919,0.5073242,1.0654297,0,-6,15,0,8,0,0,-2
19.53751504421234,false,-0.18310547,0.5136719,1.0097656,0.9668403,0.23749846,0.5136719,1.0097656,1,-2,1,0,-12,0,-1,-2
19.56593906879425,false,-0.15625,0.52490234,0.96533203,0.9672265,0.23744233,0.52490234,0.96533203,-8,2,-4,-4,25,-2,-2,-1
19.59552299976349,false,-0.12011719,0.52197266,0.93896484,0.9675911,0.23762505,0.52197266,0.93896484,-3,1,-8,-8,3,0,0,-1
19.597504019737244,false,-0.100097656,0.52197266,0.8925781,0.96775115,0.23859598,0.52197266,0.8925781,2,7,-2,6,-1,-2,-1,-1
19.626257061958313,false,-0.061523438,0.4790039,0.87109375,0.96785086,0.23987222,0.4790039,0.87109375,-3,-4,-6,-7,-20,0,1,2
19.655974984169006,false,-0.036132812,0.4506836,0.8535156,0.96792656,0.24115764,0.4506836,0.8535156,-2,0,-3,-3,1,1,0,-1
19.6579430103302,false,0.015136719,0.44677734,0.83203125,0.96785146,0.24292418,0.44677734,0.83203125,-6,-2,-1,-3,0,0,-4,1
19.6862610578537,false,0.072753906,0.43798828,0.8251953,0.96767986,0.24500233,0.43798828,0.8251953,-6,-7,-1,0,-1,-2,-2,-3
19.715772032737732,false,0.13964844,0.4345703,0.8125,0.9675332,0.24684274,0.4345703,0.8125,2,-2,-1,-8,-32,-1,-1,1
19.718042969703674,false,0.18066406,0.43896484,0.79833984,0.9673471,0.2486121,0.43896484,0.79833984,0,5,12,2,28,-2,1,0
19.74629306793213,false,0.20703125,0.45263672,0.79003906,0.96708035,0.25049847,0.45263672,0.79003906,2,2,-6,7,19,-2,0,2
19.775853037834167,false,0.1796875,0.5620117,0.828125,0.9663706,0.25373942,0.5620117,0.828125,-6,-7,-2,-1,0,-1,-1,-2
19.778024077415466,false,0.12695312,0.671875,0.84228516,0.96558213,0.25685376,0.671875,0.84228516,2,-2,-5,0,-4,1,-1,-3
19.806375980377197,false,0.09082031,0.71972656,0.85595703,0.9651223,0.25818792,0.71972656,0.85595703,7,2,-1,3,25,1,0,-2
19.83581805229187,false,0.068359375,0.7402344,0.84033203,0.96485376,0.25807565,0.7402344,0.84033203,0,-7,-4,-4,-14,-1,0,0
19.838306069374084,false,0.051757812,0.6723633,0.83691406,0.96494806,0.25568774,0.6723633,0.83691406,1,2,2,-1,-8,-3,-7,-1
19.865967988967896,false,0.020019531,0.5859375,0.8208008,0.9648643,0.25299612,0.5859375,0.8208008,8,0,-4,-4,-2,-1,-1,2
19.895537972450256,false,0.016601562,0.5131836,0.7866211,0.96402836,0.25232956,0.5131836,0.7866211,-2,-7,-1,-2,3,0,2,0
19.89717400074005,false,-0.012207031,0.48291016,0.77001953,0.96232927,0.25416332,0.48291016,0.77001953,3,4,-1,-13,-9,-2,-8,-1
19.925793051719666,false,-0.080078125,0.52978516,0.76953125,0.9597985,0.2583674,0.52978516,0.76953125,-11,-7,-1,1,1,5,21,-1
19.955793023109436,false,-0.14794922,0.6323242,0.80029297,0.9575467,0.26087165,0.6323242,0.80029297,9,-6,0,-2,1,-3,-9,-3
19.957311034202576,false,-0.20019531,0.6176758,0.828125,0.9563126,0.2592976,0.6176758,0.828125,0,2,-2,-8,0,-1,-1,1
19.9856960773468,false,-0.2211914,0.56640625,0.8330078,0.95589197,0.25458306,0.56640625,0.8330078,-11,9,1,-7,-11,1,4,2
20.015724062919617,false,-0.23876953,0.45947266,0.8491211,0.95602804,0.24781166,0.45947266,0.8491211,-11,1,-1,1,-2,-5,4,-4
20.017583966255188,false,-0.2602539,0.43603516,0.8613281,0.95539093,0.2440361,0.43603516,0.8613281,-10,-2,-5,-3,-4,-1,-8,-1
20.046061992645264,false,-0.28173828,0.4453125,0.84765625,0.95406836,0.24298805,0.4453125,0.84765625,12,-4,-1,4,1,-3,-1,-1
20.075893998146057,false,-0.29541016,0.46484375,0.84277344,0.9523292,0.24360631,0.46484375,0.84277344,-4,-2,-1,0,4,0,-4,-2
20.077919006347656,false,-0.29492188,0.48779297,0.81103516,0.95049715,0.24470478,0.48779297,0.81103516,-9,-1,1,3,-1,4,2,1
20.106284976005554,false,-0.3154297,0.5078125,0.83251953,0.9489149,0.2445229,0.5078125,0.83251953,14,-4,1,4,4,-2,-15,-1
20.135892033576965,false,-0.32177734,0.515625,0.8388672,0.9475354,0.24347582,0.515625,0.8388672,4,5,0,-8,-4,-5,-1,-1
20.138066053390503,false,-0.3125,0.46923828,0.80859375,0.9465094,0.24103731,0.46923828,0.80859375,0,0,-3,2,3,0,3,0
20.166247963905334,false,-0.36572266,0.45507812,0.8642578,0.94547975,0.23853679,0.45507812,0.8642578,-3,2,0,3,-2,-2,-18,0
20.195558071136475,false,-0.40820312,0.49072266,0.8647461,0.9435751,0.23938815,0.49072266,0.8647461,-3,-4,0,-4,-4,1,-1,1
20.197383999824524,false,-0.5053711,0.76220703,1.1640625,0.9403762,0.2458065,0.76220703,1.1640625,-15,0,0,-17,-2,3,8,-3
20.225829005241394,false,-0.49169922,0.8588867,1.0751953,0.9386141,0.24957687,0.8588867,1.0751953,21,4,-1,28,7,-7,8,4
20.255527019500732,false,-0.32861328,0.69189453,0.9248047,0.9390598,0.24714027,0.69189453,0.9248047,-3,-8,-1,-6,-4,3,-3,-2
20.25739300251007,false,-0.24902344,0.44921875,0.8261719,0.94014186,0.242253,0.44921875,0.8261719,-8,0,-1,-11,-3,0,6,-2
20.285879015922546,false,-0.16503906,0.37158203,0.78808594,0.94073415,0.23890692,0.37158203,0.78808594,-2,0,0,1,2,3,1,0
20.31558907032013,false,-0.15527344,0.3725586,0.77197266,0.9407655,0.23657997,0.3725586,0.77197266,1,-4,-2,2,2,-2,-6,-1
20.317039012908936,false,-0.20214844,0.43115234,0.78564453,0.9401897,0.23524581,0.43115234,0.78564453,2,5,0,2,-1,-4,3,1
20.345957040786743,false,-0.2680664,0.50439453,0.8310547,0.93925476,0.23395915,0.50439453,0.8310547,-2,-1,-2,-12,-6,-5,-17,0
20.37598407268524,false,-0.32666016,0.61279297,0.89990234,0.93792605,0.23274189,0.61279297,0.89990234,-6,0,0,-2,1,1,3,0
20.37724506855011,false,-0.3569336,0.63720703,0.9638672,0.93723315,0.22876912,0.63720703,0.9638672,-4,-2,-3,-2,-10,-4,-5,-2
20.406398057937622,false,-0.38134766,0.6347656,0.96484375,0.93692863,0.22321485,0.6347656,0.96484375,-1,-1,0,5,4,-3,0,-2
20.4357830286026,false,-0.3671875,0.57177734,0.90283203,0.93671215,0.21693438,0.57177734,0.90283203,-2,2,1,0,1,0,2,-4
20.438148021697998,false,-0.3491211,0.5253906,0.8408203,0.93625754,0.21094635,0.5253906,0.8408203,0,-4,-1,-1,4,2,4,-2
20.466346979141235,false,-0.35498047,0.4868164,0.8154297,0.93557197,0.20496155,0.4868164,0.8154297,-3,-3,-1,1,2,-2,-23,1
20.495593070983887,false,-0.3642578,0.48486328,0.8232422,0.9345385,0.19977431,0.48486328,0.8232422,-3,-1,0,-5,0,0,2,-2
20.525887966156006,false,-0.38623047,0.5629883,0.83935547,0.93308115,0.19574745,0.5629883,0.83935547,0,1,-3,5,1,0,0,-1
20.528398036956787,false,-0.39746094,0.5751953,0.86328125,0.9316638,0.19147205,0.5751953,0.86328125,6,1,0,1,1,3,23,1
20.555862069129944,false,-0.3173828,0.46191406,0.8574219,0.93100786,0.18500523,0.46191406,0.8574219,-3,-2,-1,-5,0,1,-1,0
20.557577967643738,false,-0.23095703,0.36914062,0.86572266,0.93078166,0.17853868,0.36914062,0.86572266,1,-2,0,0,0,3,3,-2
20.585754990577698,false,-0.2265625,0.3310547,0.85595703,0.9304111,0.17383789,0.3310547,0.85595703,4,0,-3,3,3,0,-1,-1
20.615822076797485,false,-0.25,0.33984375,0.8676758,0.92980707,0.17103127,0.33984375,0.8676758,3,0,1,-2,-3,0,1,2
20.61758005619049,false,-0.28759766,0.3774414,0.8774414,0.9288703,0.16986766,0.3774414,0.8774414,1,1,0,0,2,1,3,0
20.646318078041077,false,-0.3359375,0.42822266,0.8881836,0.92777485,0.16852541,0.42822266,0.8881836,6,1,0,3,5,-3,-12,-2
20.68018102645874,false,-0.42919922,0.5097656,0.86376953,0.9262396,0.16724195,0.5097656,0.86376953,-2,0,-1,-3,-4,-2,2,0
20.708523988723755,false,-0.5517578,0.5053711,0.86572266,0.92438805,0.16395313,0.5053711,0.86572266,-4,0,-2,-6,-2,-3,-4,-2
20.735915064811707,false,-0.5839844,0.4638672,0.8847656,0.92268604,0.1588165,0.4638672,0.8847656,2,1,-1,-3,3,-1,0,-1
20.73845398426056,false,-0.5292969,0.41064453,0.8642578,0.92124087,0.15253302,0.41064453,0.8642578,-4,0,0,-5,0,3,6,-1
20.74014699459076,false,-0.4765625,0.33935547,0.83740234,0.9200277,0.14569801,0.33935547,0.83740234,-5,-3,-2,-1,-3,-3,0,-1
20.766192078590393,false,-0.46923828,0.30273438,0.8383789,0.918849,0.13971339,0.30273438,0.8383789,-9,-1,0,-12,-7,-1,-6,0
20.79564905166626,false,-0.45507812,0.34228516,0.85498047,0.917652,0.13520016,0.34228516,0.85498047,0,-2,-1,0,1,-1,0,0
20.797176003456116,false,-0.39208984,0.41796875,0.86328125,0.9164738,0.13287802,0.41796875,0.86328125,3,-3,-2,4,-5,1,4,0
20.825806975364685,false,-0.33984375,0.4711914,0.84228516,0.915494,0.13190097,0.4711914,0.84228516,-8,0,-1,-32,-4,0,-2,1
20.85571300983429,false,-0.43896484,0.46875,0.87109375,0.9141316,0.13080822,0.46875,0.87109375,9,0,-1,23,5,1,2,0
20.85757803916931,false,-0.36767578,0.45507812,0.8408203,0.91313654,0.1301952,0.45507812,0.8408203,-2,2,0,-4,-2,-7,-18,-1
20.88574707508087,false,-0.4243164,0.42138672,0.83251953,0.91201556,0.12909336,0.42138672,0.83251953,-4,-5,-2,-2,0,0,0,-1
20.915592074394226,false,-0.43847656,0.39404297,0.8227539,0.911168,0.12762944,0.39404297,0.8227539,3,3,0,4,0,1,1,-1
20.917706966400146,false,-0.44580078,0.39013672,0.8305664,0.9103431,0.12616865,0.39013672,0.8305664,-2,-3,-2,-7,-7,2,6,-2
20.947147965431213,false,-0.45361328,0.37890625,0.8442383,0.90952945,0.12476197,0.37890625,0.8442383,-5,2,-1,-1,-1,1,5,2
20.975947976112366,false,-0.44628906,0.39013672,0.85546875,0.9086403,0.12371962,0.39013672,0.85546875,2,-2,0,2,0,-2,4,-1
20.978523015975952,false,-0.45410156,0.4111328,0.8461914,0.90745986,0.1232368,0.4111328,0.8461914,0,-7,-1,-3,1,2,-3,-1
21.006569981575012,false,-0.44921875,0.41845703,0.8378906,0.90611666,0.122199096,0.41845703,0.8378906,3,20,0,0,0,-7,-8,-2
21.03562903404236,false,-0.44677734,0.39794922,0.85839844,0.9048471,0.1204306,0.39794922,0.85839844,0,-10,-2,0,-4,-3,-1,-1
21.0378760099411,false,-0.44189453,0.3930664,0.86279297,0.9036715,0.11871942,0.3930664,0.86279297,2,-3,-1,0,2,3,7,-1
21.066691994667053,false,-0.44482422,0.39892578,0.85791016,0.90244967,0.11749852,0.39892578,0.85791016,1,-1,-1,0,3,0,1,0
21.0956369638443,false,-0.44873047,0.41845703,0.84277344,0.9011407,0.11688461,0.41845703,0.84277344,1,-6,-1,1,3,-1,-5,0
21.097856044769287,false,-0.46435547,0.43896484,0.8359375,0.8997765,0.11664561,0.43896484,0.8359375,-1,1,0,2,0,1,-11,0
21.126679062843323,false,-0.49316406,0.4326172,0.8208008,0.89829147,0.11609366,0.4326172,0.8208008,-5,4,-2,-12,-6,-1,4,-1
21.1558700799942,false,-0.5209961,0.4375,0.8251953,0.8968301,0.11505647,0.4375,0.8251953,-2,-7,1,-2,-2,3,7,-1
21.157788038253784,false,-0.5097656,0.4165039,0.8149414,0.89556694,0.11371601,0.4165039,0.8149414,-5,0,-2,-5,-5,-2,-6,-1
21.24597203731537,false,-0.54345703,0.3857422,0.8178711,0.89446986,0.11182399,0.3857422,0.8178711,3,-1,0,0,3,-4,-3,1
21.247557997703552,false,-0.53808594,0.359375,0.80908203,0.8936685,0.10999184,0.359375,0.80908203,-5,2,-1,-1,-3,4,19,-2
21.275964975357056,false,-0.5473633,0.3413086,0.8076172,0.8921206,0.107669726,0.3413086,0.8076172,4,-1,-1,7,-4,2,6,0
21.27860999107361,false,-0.5571289,0.35351562,0.8198242,0.8918962,0.1082825,0.35351562,0.8198242,2,3,-1,5,0,-1,-6,-2
21.30640399456024,false,-0.56396484,0.36914062,0.8310547,0.8917749,0.10986959,0.36914062,0.8310547,-1,0,-1,5,2,8,24,0
21.33555805683136,false,-0.5527344,0.38330078,0.8256836,0.89172417,0.1125566,0.38330078,0.8256836,-2,-3,0,-2,-1,-2,-5,-1
21.33781099319458,false,-0.53564453,0.40673828,0.8251953,0.8918126,0.11597043,0.40673828,0.8251953,-1,0,0,-8,-2,-1,-7,-2
21.36680805683136,false,-0.53271484,0.42919922,0.82910156,0.89206326,0.11938938,0.42919922,0.82910156,2,-2,0,-4,-2,-5,-5,-2
21.396008014678955,false,-0.5185547,0.42236328,0.8388672,0.8926915,0.122443706,0.42236328,0.8388672,2,1,0,5,5,-2,-1,0
21.397992968559265,false,-0.48535156,0.39501953,0.8105469,0.8936688,0.12531261,0.39501953,0.8105469,-1,0,-1,-4,-3,-4,-18,-1
21.426529049873352,false,-0.4716797,0.3984375,0.79833984,0.89477783,0.12879331,0.3984375,0.79833984,1,0,-2,-3,-3,-1,-1,-1
21.45555806159973,false,-0.47021484,0.42626953,0.80615234,0.89599496,0.13269931,0.42626953,0.80615234,0,0,-2,0,2,1,1,-1
21.457810044288635,false,-0.47021484,0.43896484,0.8203125,0.89746064,0.13648385,0.43896484,0.8203125,-2,3,0,-2,-1,-2,2,0
21.486541032791138,false,-0.4501953,0.4350586,0.8310547,0.8992851,0.14002308,0.4350586,0.8310547,1,0,-2,0,2,10,19,2
21.515631079673767,false,-0.43554688,0.42871094,0.82714844,0.9012763,0.14374276,0.42871094,0.82714844,-3,0,-2,-3,-4,-2,-1,-1
21.517827033996582,false,-0.42285156,0.44091797,0.8339844,0.9034243,0.14801729,0.44091797,0.8339844,2,-1,-1,-2,-1,-3,-16,-2
21.546488046646118,false,-0.4194336,0.4580078,0.82373047,0.9056329,0.152536,0.4580078,0.82373047,2,-5,-1,1,3,-6,-11,-1
21.57567000389099,false,-0.42626953,0.47314453,0.8066406,0.9078905,0.15662545,0.47314453,0.8066406,1,5,-2,-2,-1,1,4,1
21.577674984931946,false,-0.42919922,0.48779297,0.81884766,0.9102595,0.16034679,0.48779297,0.81884766,-2,5,-1,-2,1,-1,-2,2
21.60639202594757,false,-0.4477539,0.4975586,0.8544922,0.91253966,0.16474545,0.4975586,0.8544922,-3,-10,-1,2,-1,-1,4,-1
21.635506987571716,false,-0.44628906,0.51171875,0.8779297,0.9148258,0.17023279,0.51171875,0.8779297,0,-9,0,6,-3,-4,-9,-2
21.63787007331848,false,-0.4248047,0.5161133,0.8564453,0.9171757,0.17646445,0.5161133,0.8564453,1,5,0,-14,-1,0,1,-2
21.666678071022034,false,-0.42041016,0.56103516,0.87109375,0.9190734,0.18493773,0.56103516,0.87109375,2,0,-1,5,-3,2,9,0
21.69571101665497,false,-0.3671875,0.6245117,0.80126953,0.92064273,0.19507885,0.6245117,0.80126953,-1,3,-1,4,3,6,10,-3
21.698031067848206,false,-0.28320312,0.6430664,0.7446289,0.92220104,0.2042893,0.6430664,0.7446289,-6,-2,-2,-18,-1,-8,-8,-1
21.726647973060608,false,-0.27148438,0.56640625,0.71191406,0.924258,0.20930398,0.56640625,0.71191406,-3,-5,1,-6,-2,0,-2,-3
21.75579798221588,false,-0.24658203,0.49853516,0.8071289,0.9265048,0.21278052,0.49853516,0.8071289,4,-4,-2,-1,-1,1,2,1
21.7583509683609,false,-0.27783203,0.5395508,0.8286133,0.928196,0.21894123,0.5395508,0.8286133,8,4,-2,10,6,-4,-10,2
21.786647081375122,false,-0.28564453,0.6425781,0.7944336,0.92905086,0.22730343,0.6425781,0.7944336,2,-4,-2,-1,1,-2,-2,2
21.815587997436523,false,-0.29541016,0.6582031,0.77783203,0.9299035,0.23395604,0.6582031,0.77783203,-4,-2,1,-3,-6,-1,-3,-2
21.8178950548172,false,-0.32617188,0.6020508,0.7866211,0.931255,0.23707114,0.6020508,0.7866211,0,-7,-2,4,2,1,12,1
21.846516966819763,false,-0.3046875,0.5151367,0.79833984,0.9331886,0.23724928,0.5151367,0.79833984,-1,5,-2,0,0,0,0,-1
21.875585079193115,false,-0.31103516,0.45654297,0.81591797,0.9351072,0.23670664,0.45654297,0.81591797,-4,-2,-1,-5,-3,0,2,-2
21.877809047698975,false,-0.3149414,0.44433594,0.8383789,0.93649656,0.23780164,0.44433594,0.8383789,0,-3,0,-1,-2,1,-3,-1
21.906434059143066,false,-0.3178711,0.49267578,0.8408203,0.93709165,0.24127683,0.49267578,0.8408203,0,-1,-1,6,-1,-2,-2,-2
21.93555998802185,false,-0.3100586,0.5288086,0.81689453,0.93726176,0.245623,0.5288086,0.81689453,-2,-2,-2,-1,-1,-2,-2,-2
21.937905073165894,false,-0.31152344,0.5371094,0.8125,0.93737286,0.24946558,0.5371094,0.8125,1,-9,1,-1,1,-1,-1,0
21.967108011245728,false,-0.32373047,0.53466797,0.8071289,0.9373674,0.25288227,0.53466797,0.8071289,-2,1,-1,-2,-3,0,-1,-1
21.995683073997498,false,-0.3310547,0.5395508,0.79345703,0.9371278,0.25654584,0.5395508,0.79345703,0,-1,-1,-2,-1,0,-2,0
21.99788999557495,false,-0.33154297,0.546875,0.78564453,0.9367477,0.26026535,0.546875,0.78564453,0,6,0,2,1,-1,-1,0
22.026674032211304,false,-0.3305664,0.55810547,0.7988281,0.93637013,0.26380235,0.55810547,0.7988281,-1,-8,0,1,0,1,0,-2
22.056169986724854,false,-0.33398438,0.5722656,0.8364258,0.936002,0.267464,0.5722656,0.8364258,1,4,-2,0,1,-2,-1,-2
22.05867302417755,false,-0.34179688,0.59716797,0.8466797,0.93533206,0.2724695,0.59716797,0.8466797,3,-6,-1,6,4,-1,0,1
22.087198972702026,false,-0.3178711,0.56591797,0.9003906,0.935215,0.27613318,0.56591797,0.9003906,-3,11,-1,1,2,-2,-2,-2
22.116361021995544,false,-0.29785156,0.56689453,0.98046875,0.935389,0.27924335,0.56689453,0.98046875,-4,1,0,-14,-1,-1,0,0
22.118712067604065,false,-0.35253906,0.67626953,1.0224609,0.9351047,0.28419372,0.67626953,1.0224609,-56,-2,9,-13,-8,-6,-3,-5
22.147130012512207,false,-0.2998047,0.72558594,1.0390625,0.93612164,0.28675097,0.72558594,1.0390625,47,-1,21,22,4,2,-3,-5
22.175937056541443,false,-0.25976562,0.546875,1.0878906,0.9392158,0.28377295,0.546875,1.0878906,41,-4,-30,8,11,3,5,9
22.178444027900696,false,-0.30908203,0.46777344,1.1552734,0.9426417,0.28046092,0.46777344,1.1552734,9,-8,-9,8,9,-3,-1,5
22.206462025642395,false,-0.2109375,0.5131836,1.1542969,0.9451504,0.28198868,0.5131836,1.1542969,8,14,-3,0,-4,0,-1,2
22.235573053359985,false,-0.22998047,0.56152344,1.1582031,0.9460403,0.2885914,0.56152344,1.1582031,-35,13,10,-20,-14,-2,-4,-7
22.237879991531372,false,-0.27490234,0.6376953,1.1064453,0.94631374,0.29718792,0.6376953,1.1064453,6,-10,-10,16,2,0,2,-1
22.26673400402069,false,-0.25830078,0.71777344,1.0371094,0.9459177,0.30678084,0.71777344,1.0371094,-13,-16,-11,-8,-2,0,-1,1
22.29568898677826,false,-0.24072266,0.79833984,1.0078125,0.94463325,0.3172786,0.79833984,1.0078125,5,-2,6,-5,0,-9,-2,-2
22.297912001609802,false,-0.20410156,0.7573242,0.9135742,0.9417967,0.33026972,0.7573242,0.9135742,4,-3,-17,-2,-1,3,0,1
22.35579001903534,false,-0.15673828,0.83496094,0.8730469,0.9369902,0.34614497,0.83496094,0.8730469,-10,-21,7,1,3,-2,-2,-1
22.357737064361572,false,-0.12207031,0.84472656,0.79296875,0.93093884,0.36219454,0.84472656,0.79296875,-4,6,-1,-16,-4,6,6,3
22.38566303253174,false,-0.03466797,0.8886719,0.7602539,0.9242598,0.3766136,0.8886719,0.7602539,-3,-7,10,6,5,-1,-3,-5
22.38749599456787,false,0.01171875,0.8496094,0.6821289,0.91698295,0.38906008,0.8496094,0.6821289,-1,12,17,-13,-9,2,-1,0
22.416056036949158,false,0.08203125,0.77783203,0.65625,0.90800476,0.40175366,0.77783203,0.65625,-15,5,36,4,-15,1,0,-1
22.418094992637634,false,0.14013672,0.74902344,0.58740234,0.89583564,0.4179793,0.74902344,0.58740234,2,21,-23,-15,22,2,1,-1
22.446568965911865,false,0.20361328,0.6503906,0.6503906,0.882087,0.4339634,0.6503906,0.6503906,-44,19,8,6,-20,-4,-2,-4
22.47561204433441,false,0.21191406,0.62109375,0.74853516,0.8662608,0.4503433,0.62109375,0.74853516,32,-120,11,-45,-30,2,16,-5
22.477792024612427,false,0.10498047,0.5966797,0.5239258,0.84775174,0.4681587,0.5966797,0.5239258,53,126,-22,69,56,-14,-12,18
22.50660800933838,false,0.37304688,0.6411133,0.068847656,0.82619274,0.48743907,0.6411133,0.068847656,-24,99,-15,-21,-66,0,9,10
22.535691022872925,false,0.62939453,0.65722656,0.034179688,0.8064249,0.50313056,0.65722656,0.034179688,-12,-80,5,-19,-7,-19,-22,-16
22.53796398639679,false,0.5913086,0.73046875,0.060546875,0.79548293,0.50684345,0.73046875,0.060546875,59,-14,-6,35,16,16,5,-5
22.566774010658264,false,0.5698242,0.5654297,0.099121094,0.79532063,0.4968465,0.5654297,0.099121094,5,44,-8,1,13,-24,-4,2
22.595587015151978,false,0.54052734,0.4267578,0.2607422,0.8014187,0.48072916,0.4267578,0.2607422,-9,8,0,-4,-1,18,-7,-8
22.59791600704193,false,0.56396484,0.38623047,0.28076172,0.8085693,0.46517,0.38623047,0.28076172,-3,11,-2,-7,-2,10,1,5
22.626525044441223,false,0.60595703,0.3881836,0.32666016,0.8158022,0.45172468,0.3881836,0.32666016,-22,-2,0,-7,-1,8,-4,-1
22.656063079833984,false,0.62353516,0.4013672,0.37304688,0.8232041,0.4403199,0.4013672,0.37304688,2,-3,-2,1,1,-1,-1,-6
22.658485054969788,false,0.64208984,0.45361328,0.38916016,0.83071434,0.4307385,0.45361328,0.38916016,4,1,-3,-2,3,-2,-3,-1
22.687136054039,false,0.63183594,0.51660156,0.4584961,0.8394397,0.42072695,0.51660156,0.4584961,-28,-7,-2,-12,-1,-4,-2,-2
22.716631054878235,false,0.64990234,0.50146484,0.4794922,0.84945583,0.4081563,0.50146484,0.4794922,-36,-10,-2,-2,6,-1,-1,-6
22.719649076461792,false,0.64941406,0.49072266,0.53808594,0.8593958,0.39570048,0.49072266,0.53808594,-11,-2,-2,9,6,8,9,4
22.746621966362,false,0.6591797,0.5415039,0.54052734,0.86848557,0.3846508,0.5415039,0.54052734,30,7,-1,6,10,-1,1,0
22.775905966758728,false,0.6713867,0.6347656,0.5673828,0.87714887,0.374334,0.6347656,0.5673828,-12,-6,-1,-13,-3,-1,-3,-2
22.778289079666138,false,0.6538086,0.64404297,0.5786133,0.88673437,0.36084622,0.64404297,0.5786133,2,3,0,-1,0,-8,0,1
22.806496024131775,false,0.6640625,0.62402344,0.61572266,0.896061,0.34649807,0.62402344,0.61572266,-2,2,-2,-19,-18,-10,-3,3
22.835841059684753,false,0.6225586,0.609375,0.6220703,0.9053317,0.33068746,0.609375,0.6220703,10,7,-1,-1,4,-4,-7,3
22.838587999343872,false,0.6166992,0.6376953,0.625,0.9146709,0.31300852,0.6376953,0.625,11,3,-1,55,5,-3,-1,-3
22.866669058799744,false,0.6220703,0.6621094,0.62402344,0.92471,0.28962037,0.6621094,0.62402344,-5,-11,2,-19,0,2,1,-2
22.895796060562134,false,0.6098633,0.59472656,0.62158203,0.93568957,0.25806233,0.59472656,0.62158203,-9,-8,-4,-68,-5,3,1,-6
22.898411989212036,false,0.59228516,0.43603516,0.640625,0.9466941,0.2191252,0.43603516,0.640625,7,3,2,21,16,-1,-1,4
22.92653799057007,false,0.5473633,0.33642578,0.6201172,0.95633894,0.17743665,0.33642578,0.6201172,-8,-70,0,-5,-7,5,-5,-8
22.95627796649933,false,0.49902344,0.1665039,0.6386719,0.96425605,0.13556227,0.1665039,0.6386719,4,-54,-2,4,1,8,1,-4
22.959128975868225,false,0.40039062,0.0014648438,0.71435547,0.9702892,0.096436866,0.0014648438,0.71435547,-2,-8,-1,-1,-13,-15,2,7
22.98718500137329,false,0.33447266,-0.041503906,0.80322266,0.9740348,0.06366201,-0.041503906,0.80322266,2,5,0,-3,-2,2,2,-6
23.016571044921875,false,0.29101562,0.01953125,0.83984375,0.97605586,0.036744773,0.01953125,0.83984375,0,10,-1,-7,-5,4,0,1
23.019301056861877,false,0.2836914,0.016601562,0.88916016,0.9768734,0.013305741,0.016601562,0.88916016,-7,2,-2,-8,-4,-10,-1,5
23.046674966812134,false,0.30810547,-0.12841797,0.8823242,0.9766913,-0.007080127,-0.12841797,0.8823242,1,3,-3,1,0,12,1,3
23.0761159658432,false,0.35546875,-0.21191406,0.9086914,0.97573316,-0.02166804,-0.21191406,0.9086914,3,0,1,11,-1,-4,4,-3
23.106626987457275,false,0.36914062,-0.17822266,0.90527344,0.9741956,-0.024475437,-0.17822266,0.90527344,-7,-5,8,7,-6,-6,-5,-5
23.108694076538086,false,0.33740234,0.10839844,0.89990234,0.9723717,-0.017639535,0.10839844,0.89990234,3,-1,13,12,9,-2,1,0
23.13671100139618,false,0.33740234,0.20458984,0.85839844,0.97051865,-0.006957998,0.20458984,0.85839844,6,1,-1,-8,-4,3,1,2
23.139196038246155,false,0.36376953,0.27783203,0.8691406,0.9687244,0.003601206,0.27783203,0.8691406,-6,5,1,-11,-21,-9,-9,-4
23.196568965911865,false,0.3491211,0.27734375,0.84716797,0.9670704,0.013000883,0.27734375,0.84716797,-4,4,-8,18,20,2,-1,-3
23.199072003364563,false,0.35791016,0.3828125,0.9116211,0.9656485,0.022522235,0.3828125,0.9116211,4,8,-4,-13,-10,2,1,3
23.22645604610443,false,0.33203125,0.30859375,0.90722656,0.96420354,0.033692494,0.30859375,0.90722656,1,2,-6,0,2,2,0,1
23.256314039230347,false,0.31591797,0.30029297,0.98339844,0.9642588,0.035523396,0.30029297,0.98339844,-5,1,13,10,16,1,-1,-2
23.258591055870056,false,0.2836914,0.30322266,1.0244141,0.96438354,0.039674006,0.30322266,1.0244141,4,1,-4,-16,-26,1,2,3
23.286550998687744,false,0.25585938,0.25195312,1.0195312,0.96457016,0.044740237,0.25195312,1.0195312,-3,-2,-3,24,18,-4,-2,-2
23.31580901145935,false,0.26611328,0.22314453,0.9892578,0.9646824,0.052003127,0.22314453,0.9892578,8,4,-4,-11,-10,9,1,3
23.318438053131104,false,0.27392578,0.31103516,0.9941406,0.9643794,0.065309234,0.31103516,0.9941406,-3,-2,-3,-9,0,-3,-2,-2
23.376386046409607,false,0.25585938,0.42626953,0.9770508,0.96406144,0.08184909,0.42626953,0.9770508,-1,0,4,6,7,-5,0,-3
23.377444982528687,false,0.2758789,0.48291016,0.9770508,0.9639541,0.09765887,0.48291016,0.9770508,0,3,-1,4,-6,2,0,-3
23.405912041664124,false,0.23632812,0.46289062,0.9316406,0.96412754,0.11255072,0.46289062,0.9316406,-16,-2,-1,-60,-44,-13,-2,-3
23.408063054084778,false,0.2602539,0.4765625,0.75097656,0.9643998,0.12689793,0.4765625,0.75097656,-36,-7,3,-71,-60,-14,-5,-5
23.436240077018738,false,0.16210938,0.4711914,0.6982422,0.9651005,0.14062685,0.4711914,0.6982422,-32,-2,8,-62,-49,-13,-1,-3
23.438915014266968,false,0.2529297,0.4008789,0.8984375,0.9664149,0.15015352,0.4008789,0.8984375,5,0,5,-13,-31,0,-2,-2
23.4665549993515,false,0.26611328,0.4165039,0.99609375,0.9680521,0.16022299,0.4165039,0.99609375,-7,-3,-6,14,5,1,0,0
23.49592900276184,false,0.20751953,0.41064453,0.95654297,0.969643,0.1700507,0.41064453,0.95654297,1,-4,-7,38,19,1,-2,-2
23.49861705303192,false,0.18359375,0.40527344,0.9326172,0.97114855,0.17932464,0.40527344,0.9326172,-1,-2,-4,-6,6,1,1,-1
23.526519060134888,false,0.17822266,0.39013672,0.9580078,0.9726221,0.18744415,0.39013672,0.9580078,-2,-3,-11,15,1,-1,-4,-2
23.555971026420593,false,0.1303711,0.37597656,0.97216797,0.97386223,0.1942231,0.37597656,0.97216797,4,2,5,5,9,-3,1,0
23.55848503112793,false,0.10498047,0.359375,0.953125,0.9747448,0.19977081,0.359375,0.953125,-1,0,-2,3,22,-1,-2,-1
23.587143063545227,false,0.078125,0.36328125,0.91308594,0.9748863,0.20606162,0.36328125,0.91308594,1,0,-5,4,10,3,1,0
23.616351008415222,false,0.056640625,0.35839844,0.8847656,0.9743885,0.21240741,0.35839844,0.8847656,-3,0,3,-2,-11,-1,0,-2
23.619474053382874,false,-0.011230469,0.38623047,0.8925781,0.97331345,0.21821119,0.38623047,0.8925781,1,-2,-4,4,9,2,-1,-1
23.64688003063202,false,-0.07714844,0.37451172,0.953125,0.9720311,0.22175127,0.37451172,0.953125,5,1,-1,3,-6,1,0,-1
23.676159977912903,false,-0.09716797,0.359375,0.9272461,0.97031903,0.22425313,0.359375,0.9272461,1,0,4,1,2,2,-3,0
23.679269075393677,false,-0.09423828,0.34423828,0.9038086,0.96832925,0.22535752,0.34423828,0.9038086,-3,-3,2,2,-1,-3,-2,-3
23.7656090259552,false,-0.12597656,0.2758789,0.89501953,0.9662008,0.22467373,0.2758789,0.89501953,1,-1,0,-8,-12,-4,-2,-2
23.767888069152832,false,-0.21728516,0.35253906,1.0229492,0.9640243,0.22229812,0.35253906,1.0229492,3,1,-6,9,6,-1,3,0
23.795866012573242,false,-0.4111328,0.22167969,1.0795898,0.9608414,0.19580609,0.22167969,1.0795898,-5,-1,-3,-10,-4,-1,-2,0
23.798460006713867,false,-0.45507812,0.18017578,1.1416016,0.9608152,0.18391056,0.18017578,1.1416016,-8,-1,4,-3,2,-3,-4,-4
23.855915069580078,false,-0.5317383,0.1640625,1.1660156,0.96103805,0.17407942,0.1640625,1.1660156,-1,0,0,4,5,1,-1,-1
23.85815703868866,false,-0.5605469,0.14746094,1.1533203,0.9616747,0.16639322,0.14746094,1.1533203,0,-2,-1,15,2,2,0,-1
23.886762022972107,false,-0.49316406,0.18115234,1.0458984,0.96371037,0.16022167,0.18115234,1.0458984,-3,0,-5,-10,-2,1,-1,0
23.91584002971649,false,-0.47509766,0.21582031,1.0385742,0.9649356,0.16034448,0.21582031,1.0385742,0,-1,0,-2,-7,-2,-3,-1
23.918660044670105,false,-0.46679688,0.25927734,1.050293,0.9665248,0.16089417,0.25927734,1.050293,6,-1,-2,-1,-9,-2,-2,-2
23.946632981300354,false,-0.4501953,0.26464844,1.0273438,0.9684767,0.1614433,0.26464844,1.0273438,0,1,-5,-6,0,-3,-3,-1
23.976186990737915,false,-0.4116211,0.2607422,0.97802734,0.9705308,0.16253842,0.2607422,0.97802734,3,0,2,3,7,1,-1,1
23.979498028755188,false,-0.38134766,0.2944336,0.94921875,0.9723438,0.1658417,0.2944336,0.94921875,-3,0,-1,-3,-2,-1,1,0
24.006445050239563,false,-0.38427734,0.34179688,0.94970703,0.9737392,0.17017394,0.34179688,0.94970703,0,0,5,0,-6,-2,0,0
24.03579807281494,false,-0.3544922,0.38232422,0.92822266,0.974741,0.1749895,0.38232422,0.92822266,1,0,-7,13,1,0,0,-1
24.038490056991577,false,-0.31640625,0.4399414,0.91552734,0.97519076,0.18030378,0.4399414,0.91552734,0,-2,1,-11,-5,0,0,-1
24.066617965698242,false,-0.2919922,0.48779297,0.88623047,0.97497636,0.186108,0.48779297,0.88623047,1,-1,4,3,7,1,1,1
24.095887064933777,false,-0.2709961,0.53271484,0.8798828,0.9739986,0.1925779,0.53271484,0.8798828,-1,0,5,-4,-2,-1,2,1
24.098587036132812,false,-0.24121094,0.5498047,0.8745117,0.9721844,0.20007662,0.5498047,0.8745117,0,-2,-2,-9,-6,2,-2,-1
24.126604080200195,false,-0.22753906,0.59765625,0.88964844,0.9696075,0.2085709,0.59765625,0.88964844,-5,1,2,6,-1,-1,0,0
24.156288027763367,false,-0.2211914,0.6894531,0.89941406,0.966165,0.21857584,0.6894531,0.89941406,-10,-2,-2,-12,-12,-2,-3,-3
24.158578038215637,false,-0.08935547,0.65283203,0.93896484,0.96316737,0.22779092,0.65283203,0.93896484,81,20,-3,9,29,4,2,2
24.187061071395874,false,-0.36523438,0.8911133,0.796875,0.95709026,0.24665827,0.8911133,0.796875,-30,-16,-3,-22,-5,-6,-2,-1
24.216222047805786,false,-0.16845703,0.8222656,0.7416992,0.95014286,0.26800779,0.8222656,0.7416992,0,4,-3,13,-44,0,0,-1
24.2193740606308,false,-0.020507812,0.90625,0.64746094,0.94366556,0.28674346,0.90625,0.64746094,-31,-3,-2,-32,33,-3,-1,-1
24.2466059923172,false,-0.045410156,0.85595703,0.6352539,0.9392307,0.29865193,0.85595703,0.6352539,0,-3,-2,16,-5,-2,-1,-3
24.275822043418884,false,-0.01171875,0.8300781,0.6347656,0.9368542,0.3053062,0.8300781,0.6347656,-11,-4,3,8,5,-3,-2,-1
24.278748989105225,false,-0.00390625,0.7919922,0.65478516,0.93620574,0.3082435,0.7919922,0.65478516,6,-1,-1,0,0,1,1,-2
24.306501030921936,false,-0.036132812,0.8022461,0.6723633,0.9365006,0.31007123,0.8022461,0.6723633,-2,-1,2,-1,-9,3,-1,0
24.33589208126068,false,-0.05517578,0.81591797,0.6591797,0.9372246,0.31208268,0.81591797,0.6591797,-5,-4,-14,5,-10,-2,-2,-2
24.33748507499695,false,-0.068359375,0.82666016,0.65478516,0.9385969,0.31319118,0.82666016,0.65478516,-1,-2,1,-5,-2,1,-2,-4
24.36609399318695,false,-0.09033203,0.8105469,0.66308594,0.9405036,0.31311464,0.8105469,0.66308594,0,-1,-1,3,4,1,0,-1
24.395734071731567,false,-0.12548828,0.7841797,0.67041016,0.9426186,0.31233436,0.7841797,0.67041016,-1,-1,0,5,5,2,-1,-1
24.397472977638245,false,-0.14111328,0.7626953,0.6972656,0.944565,0.31166068,0.7626953,0.6972656,0,-3,-7,-3,3,1,0,-2
24.42622196674347,false,-0.17626953,0.74121094,0.74121094,0.9463276,0.31062058,0.74121094,0.74121094,4,-2,-2,-4,0,-2,-2,-1
24.4566969871521,false,-0.19140625,0.71191406,0.76123047,0.9481079,0.3083655,0.71191406,0.76123047,1,-2,-3,2,4,-7,-5,-2
24.45807707309723,false,-0.20800781,0.70410156,0.75878906,0.94917685,0.3068299,0.70410156,0.75878906,0,-1,-8,-3,6,0,2,0
24.485880970954895,false,-0.24316406,0.67871094,0.78125,0.94963557,0.3054362,0.67871094,0.78125,-2,-1,2,-17,-6,1,0,-1
24.51567506790161,false,-0.28125,0.6699219,0.8203125,0.9493612,0.30432782,0.6699219,0.8203125,-1,0,-1,3,-3,2,1,0
24.517722964286804,false,-0.31689453,0.64746094,0.8774414,0.94836175,0.3034245,0.64746094,0.8774414,1,-1,-6,-4,-4,-2,-1,0
24.545776963233948,false,-0.3227539,0.6020508,0.91845703,0.94654346,0.30300134,0.6020508,0.91845703,-2,-2,2,-17,-18,-4,0,0
24.575608015060425,false,-0.34228516,0.5698242,0.9448242,0.94373906,0.3037153,0.5698242,0.9448242,-6,1,0,0,3,0,-1,-2
24.57757008075714,false,-0.36816406,0.5493164,0.9951172,0.94042236,0.3043997,0.5493164,0.9951172,-2,-3,-6,-1,1,-2,-1,-1
24.605908036231995,false,-0.37939453,0.52246094,1.0180664,0.9367935,0.3050011,0.52246094,1.0180664,0,1,-2,3,-2,1,0,0
24.635621070861816,false,-0.3720703,0.46191406,1.065918,0.93325126,0.30500042,0.46191406,1.065918,-2,0,4,0,1,2,-1,0
24.637490034103394,false,-0.37158203,0.43701172,1.0893555,0.92997545,0.30482394,0.43701172,1.0893555,-4,-1,-2,2,4,-1,-1,-2
24.66615104675293,false,-0.37060547,0.43603516,1.1342773,0.9279113,0.3020198,0.43603516,1.1342773,8,2,-5,-8,1,-2,-2,-1
24.69600999355316,false,-0.37646484,0.4345703,1.1547852,0.9260816,0.3001891,0.4345703,1.1547852,4,0,-2,3,-8,-2,-1,0
24.697654008865356,false,-0.3515625,0.4169922,1.1606445,0.9247826,0.29908484,0.4169922,1.1606445,-3,-2,2,-2,1,-3,1,-1
24.7261700630188,false,-0.28955078,0.41455078,1.152832,0.92428356,0.2982879,0.41455078,1.152832,5,1,-4,-4,9,3,1,1
24.756729006767273,false,-0.24267578,0.50683594,1.1391602,0.9240088,0.29927436,0.50683594,1.1391602,-5,-4,3,4,-1,2,-1,-1
24.758669018745422,false,-0.17871094,0.5048828,1.0541992,0.9242754,0.3002995,0.5048828,1.0541992,-8,6,24,6,-8,-5,-2,-3
24.786352038383484,false,-0.118652344,0.47070312,0.95410156,0.92544574,0.2996315,0.47070312,0.95410156,-3,-4,-10,-12,-3,-1,2,1
24.815850973129272,false,-0.06689453,0.5019531,0.9326172,0.9274044,0.29780218,0.5019531,0.9326172,-3,0,1,-3,-3,-1,-2,-1
24.81835103034973,false,-0.03466797,0.4975586,0.9140625,0.9303588,0.2938425,0.4975586,0.9140625,-3,-2,3,-4,-2,-2,-3,-3
24.8457750082016,false,-0.015625,0.48046875,0.9042969,0.93383116,0.28932348,0.48046875,0.9042969,2,-3,-6,-1,2,0,-2,-1
24.875818014144897,false,0.0,0.4814453,0.890625,0.93771225,0.28406647,0.4814453,0.890625,0,-1,-6,-4,-8,-8,-2,0
24.878123998641968,false,0.014160156,0.44628906,0.84228516,0.94186044,0.27771792,0.44628906,0.84228516,-1,-2,3,2,8,-3,-3,-4
24.906012058258057,false,0.0073242188,0.4477539,0.8544922,0.94607615,0.27100503,0.4477539,0.8544922,1,-4,-3,1,0,5,0,1
24.936177015304565,false,-0.03564453,0.49072266,0.8364258,0.95007664,0.26417807,0.49072266,0.8364258,0,-1,-5,0,-1,0,0,-1
24.93804407119751,false,-0.032226562,0.4477539,0.7895508,0.9538486,0.2563617,0.4477539,0.7895508,-3,1,-1,-11,-1,1,1,-2
24.96577501296997,false,-0.0034179688,0.43017578,0.7753906,0.957218,0.2474985,0.43017578,0.7753906,-1,-1,13,3,-8,-2,1,-1
24.995967984199524,false,0.041992188,0.44580078,0.77246094,0.959867,0.23798305,0.44580078,0.77246094,-3,-2,-2,-3,5,-1,-1,-2
24.99797296524048,false,0.08154297,0.4892578,0.80566406,0.9617584,0.22736244,0.4892578,0.80566406,-4,-1,-10,-2,4,-3,-1,-1
25.025830030441284,false,0.119140625,0.45996094,0.81347656,0.9630647,0.21424496,0.45996094,0.81347656,5,-3,-3,-2,-1,1,0,-1
25.05606997013092,false,0.18896484,0.4033203,0.8154297,0.9634836,0.19928882,0.4033203,0.8154297,0,-1,1,1,-5,2,-2,1
25.058048009872437,false,0.2368164,0.3544922,0.8041992,0.9625423,0.18439063,0.3544922,0.8041992,1,2,-1,-3,3,2,-2,-2
25.08627700805664,false,0.27539062,0.38916016,0.8540039,0.95997846,0.17065741,0.38916016,0.8540039,-6,1,-4,-3,8,3,-2,0
25.116536021232605,false,0.2626953,0.5239258,0.90966797,0.9556666,0.15827066,0.5239258,0.90966797,-1,-2,-2,1,-4,-2,-1,0
25.118807077407837,false,0.26708984,0.56689453,0.86083984,0.95022184,0.14380284,0.56689453,0.86083984,3,-1,-3,2,7,-3,-2,2
25.146265029907227,false,0.33251953,0.44970703,0.76123047,0.9438744,0.12634636,0.44970703,0.76123047,0,-3,-5,-6,-14,2,0,-2
25.176275968551636,false,0.34423828,0.4111328,0.77246094,0.9361177,0.11096447,0.4111328,0.77246094,-6,3,1,2,12,4,0,0
25.17845606803894,false,0.3256836,0.49902344,0.82373047,0.9271646,0.09888128,0.49902344,0.82373047,2,0,2,1,-5,-3,-1,1
25.20587396621704,false,0.29345703,0.5761719,0.7973633,0.91737634,0.089418255,0.5761719,0.7973633,2,-1,1,0,-16,-5,-2,0
25.236037969589233,false,0.28857422,0.6748047,0.8330078,0.90771127,0.07958953,0.6748047,0.8330078,-5,-4,-1,6,-4,-4,2,-1
25.238180994987488,false,0.31884766,0.53808594,0.7397461,0.8984452,0.06823789,0.53808594,0.7397461,2,-1,-6,-2,-4,1,-1,-2
25.265846967697144,false,0.3515625,0.45117188,0.7392578,0.889646,0.060485672,0.45117188,0.7392578,-7,-1,5,12,9,-4,-3,-4
25.325863003730774,false,0.33251953,0.5576172,0.8330078,0.88111675,0.05889981,0.5576172,0.8330078,-4,1,8,-12,-11,-1,-1,-2
25.327970027923584,false,0.33007812,0.6669922,0.8286133,0.8726311,0.06372154,0.6669922,0.8286133,1,10,42,16,-8,-6,-4,-4
25.356294989585876,false,0.38916016,0.64453125,0.8066406,0.85835165,0.07580692,0.64453125,0.8066406,-9,3,43,-9,-17,-3,-5,-6
25.358260989189148,false,0.45214844,0.64453125,0.78222656,0.85265374,0.083739504,0.64453125,0.78222656,8,-6,-36,-9,19,2,1,5
25.385833978652954,false,0.49560547,0.6352539,0.7792969,0.84767133,0.092775084,0.6352539,0.7792969,0,-6,-20,-6,7,3,3,0
25.41600799560547,false,0.53564453,0.66259766,0.7832031,0.84339035,0.102722965,0.66259766,0.7832031,1,-5,-18,-6,6,4,-3,-1
25.418487071990967,false,0.5917969,0.69677734,0.74121094,0.8399548,0.11169287,0.69677734,0.74121094,3,-4,-7,9,6,-4,0,-2
25.44592797756195,false,0.60009766,0.6982422,0.69677734,0.83776724,0.119567685,0.6982422,0.69677734,-2,1,3,4,5,0,-1,0
25.50634002685547,false,0.58203125,0.66064453,0.6455078,0.8372804,0.1258545,0.66064453,0.6455078,-1,-2,0,-5,0,1,0,1
25.50804102420807,false,0.5253906,0.6166992,0.6508789,0.83874124,0.13104187,0.6166992,0.6508789,-4,0,-4,-7,-9,1,3,0
25.566033005714417,false,0.44921875,0.52685547,0.6586914,0.84455794,0.13623281,0.52685547,0.6586914,3,0,-5,4,3,-2,-3,0
25.568323016166687,false,0.45410156,0.48242188,0.6254883,0.8478796,0.1367154,0.48242188,0.6254883,-1,-2,-3,-1,-1,0,-1,-2
25.5711829662323,false,0.46728516,0.4741211,0.57470703,0.8512152,0.1377594,0.4741211,0.57470703,-1,-2,-10,0,0,0,-2,0
25.595798015594482,false,0.44384766,0.45947266,0.5830078,0.85534155,0.14001381,0.45947266,0.5830078,-4,-3,-4,-7,-2,-3,1,0
25.625874042510986,false,0.39257812,0.48535156,0.5883789,0.859762,0.14404646,0.48535156,0.5883789,5,2,3,4,7,-1,0,-2
25.628044962882996,false,0.4013672,0.44091797,0.5859375,0.86458266,0.14801362,0.44091797,0.5859375,2,-2,-9,-4,-2,-2,2,2
25.655866980552673,false,0.40576172,0.4404297,0.5732422,0.86958915,0.15356821,0.4404297,0.5732422,-3,0,-1,-6,-4,0,-1,-2
25.658221006393433,false,0.3852539,0.48779297,0.6323242,0.87498623,0.16015373,0.48779297,0.6323242,-3,0,-3,-4,0,0,0,1
25.686132073402405,false,0.3569336,0.49023438,0.6640625,0.88088334,0.16614221,0.49023438,0.6640625,1,-1,9,5,0,-1,-3,-4
25.71591007709503,false,0.35595703,0.47753906,0.6972656,0.88687456,0.17090493,0.47753906,0.6972656,-3,-2,7,4,-5,0,-2,-1
25.71835696697235,false,0.36914062,0.4794922,0.6269531,0.8919123,0.17834583,0.4794922,0.6269531,6,-1,-9,12,7,3,0,1
25.74578297138214,false,0.3857422,0.52441406,0.55126953,0.8965473,0.18933146,0.52441406,0.55126953,-6,0,4,-3,-5,-3,-3,-3
25.77603507041931,false,0.3330078,0.60253906,0.57666016,0.9024672,0.20141633,0.60253906,0.57666016,-12,-4,-3,-12,-2,-2,0,0
25.77814507484436,false,0.2319336,0.6870117,0.7104492,0.90932137,0.21368869,0.6870117,0.7104492,7,-5,-4,18,0,1,0,-1
25.805763006210327,false,0.11669922,0.67041016,0.80908203,0.9171161,0.22241256,0.67041016,0.80908203,4,4,-10,-5,2,1,2,3
25.836658000946045,false,0.11230469,0.62841797,0.7441406,0.92464584,0.22839954,0.62841797,0.7441406,11,4,9,9,0,-2,-3,-1
25.838590025901794,false,0.19384766,0.6298828,0.70166016,0.9317442,0.23408051,0.6298828,0.70166016,-7,1,8,-2,-1,-3,-3,-4
25.865779995918274,false,0.16015625,0.6333008,0.71191406,0.9389747,0.2393824,0.6333008,0.71191406,-3,-4,-6,-14,-11,1,0,1
25.89611506462097,false,0.084472656,0.6376953,0.765625,0.9460809,0.24347849,0.6376953,0.765625,-2,1,6,1,4,2,-1,-2
25.8979309797287,false,0.03466797,0.546875,0.8457031,0.952679,0.24592155,0.546875,0.8457031,-1,-3,-2,-1,6,-5,2,0
25.925801992416382,false,-0.037597656,0.49267578,0.90185547,0.9584228,0.24659458,0.49267578,0.90185547,2,-6,-13,19,13,-5,-3,-2
25.955883026123047,false,-0.03564453,0.44140625,0.93310547,0.9633298,0.24432676,0.44140625,0.93310547,0,5,4,7,3,-5,-1,1
25.95816707611084,false,-0.041503906,0.42041016,0.9790039,0.96715695,0.24128567,0.42041016,0.9790039,-4,-2,-5,-12,-5,-6,-4,-6
25.986149072647095,false,-0.047851562,0.31689453,1.0449219,0.9706497,0.2349872,0.31689453,1.0449219,-8,-9,7,-5,-14,-10,-12,-10
26.0160950422287,false,-0.05859375,0.10888672,1.1035156,0.97382367,0.22577085,0.10888672,1.1035156,-9,-4,-7,-7,-2,7,5,-8
26.018537044525146,false,-0.05810547,0.06689453,1.2758789,0.97527844,0.22089952,0.06689453,1.2758789,-15,-3,5,-12,-3,4,0,10
26.046308040618896,false,-0.13671875,0.104003906,1.3227539,0.97615737,0.21674074,0.104003906,1.3227539,-8,5,-5,7,4,11,-5,-12
26.076331973075867,false,-0.15576172,0.11328125,1.2817383,0.9760583,0.21607445,0.11328125,1.2817383,12,7,-6,-7,5,-11,-4,-3
26.078657031059265,false,-0.16552734,0.20898438,1.2451172,0.9752109,0.21821237,0.20898438,1.2451172,-15,-3,1,-5,-4,26,2,-13
26.10587501525879,false,-0.23046875,0.26416016,1.2329102,0.97416276,0.22083464,0.26416016,1.2329102,-8,-11,1,4,10,-5,2,-10
26.13625204563141,false,-0.22509766,0.2553711,1.1928711,0.9734946,0.22144577,0.2553711,1.1928711,10,0,-4,-4,-5,-5,1,9
26.138418078422546,false,-0.24804688,0.33203125,1.2177734,0.972753,0.22187094,0.33203125,1.2177734,8,7,14,-3,-4,-10,-7,-3
26.166015028953552,false,-0.28320312,0.39208984,1.1503906,0.972061,0.22168313,0.39208984,1.1503906,10,8,3,6,-1,3,7,21
26.225547075271606,false,-0.26904297,0.4326172,1.0878906,0.9715925,0.21991757,0.4326172,1.0878906,-8,-1,-8,-6,0,-4,3,13
26.25889801979065,false,-0.27929688,0.4580078,1.074707,0.9710102,0.21772651,0.4580078,1.074707,0,-4,12,1,-14,-13,-10,-7
26.31640899181366,false,-0.35791016,0.45996094,0.94873047,0.96421915,0.2160139,0.45996094,0.94873047,9,9,5,-7,0,0,0,6
26.319661021232605,false,-0.3852539,0.49023438,0.93847656,0.9613009,0.21693209,0.49023438,0.93847656,24,9,-1,-1,1,0,4,-5
26.345967054367065,false,-0.39648438,0.50390625,0.9165039,0.958513,0.2161293,0.50390625,0.9165039,-20,1,-7,-15,-13,-5,8,-1
26.34809398651123,false,-0.38916016,0.4897461,0.9042969,0.9556713,0.21393804,0.4897461,0.9042969,-6,0,0,0,-6,0,-4,-2
26.37644600868225,false,-0.41259766,0.4951172,0.87109375,0.9525029,0.21161984,0.4951172,0.87109375,8,-4,-4,-1,-1,-1,-2,15
26.406540989875793,false,-0.4013672,0.4951172,0.8535156,0.948885,0.20984605,0.4951172,0.8535156,-7,7,1,0,-5,2,5,-19
26.43620800971985,false,-0.41015625,0.47607422,0.83691406,0.94499326,0.20789608,0.47607422,0.83691406,-32,-26,-2,-14,-4,-2,2,15
26.43764901161194,false,-0.44091797,0.4272461,0.8227539,0.9405452,0.2064939,0.4272461,0.8227539,-17,-1,0,-5,0,-4,1,-2
26.46596598625183,false,-0.48242188,0.36132812,0.77441406,0.9354408,0.20642442,0.36132812,0.77441406,5,-2,6,2,-12,1,-3,4
26.468204021453857,false,-0.36816406,0.33691406,0.703125,0.9297956,0.20722486,0.33691406,0.703125,-8,-4,-3,-11,-2,-1,-1,-8
26.496828079223633,false,-0.3564453,0.2783203,0.9145508,0.92390347,0.20758379,0.2783203,0.9145508,-18,-5,-3,-1,-20,-10,1,-11
26.526713013648987,false,-0.58203125,0.3251953,0.7524414,0.9103363,0.20983817,0.3251953,0.7524414,-9,6,0,7,8,2,-1,-5
26.556051015853882,false,-0.53271484,0.28027344,0.85839844,0.90373003,0.20759057,0.28027344,0.85839844,1,-1,-9,3,1,-2,0,1
26.558621048927307,false,-0.50439453,0.25634766,0.8911133,0.89676654,0.20465957,0.25634766,0.8911133,-6,-3,-3,-10,4,3,1,5
26.586668968200684,false,-0.5083008,0.24902344,0.90625,0.8896017,0.20105304,0.24902344,0.90625,-6,-8,-2,-2,-7,2,-2,-3
26.64579403400421,false,-0.50341797,0.22509766,0.9580078,0.88228685,0.19696574,0.22509766,0.9580078,-13,-2,3,-1,-4,-2,-2,-9
26.64748501777649,false,-0.50878906,0.21875,1.0209961,0.8749689,0.19275562,0.21875,1.0209961,2,-5,2,-5,-1,0,-1,2
26.649680972099304,false,-0.49951172,0.16699219,1.0649414,0.8682462,0.1870773,0.16699219,1.0649414,0,2,-6,3,3,-1,1,4
26.676030039787292,false,-0.4296875,0.11328125,1.0668945,0.862713,0.18006249,0.11328125,1.0668945,-2,0,-4,0,3,3,1,6
26.67848801612854,false,-0.3623047,0.078125,1.0600586,0.85833985,0.17272998,0.078125,1.0600586,1,-1,0,-2,-5,-3,-1,5
26.70667803287506,false,-0.34033203,0.09667969,1.0986328,0.855004,0.1650436,0.09667969,1.0986328,-6,5,-1,-5,-3,1,0,-4
26.736184000968933,false,-0.32128906,0.07080078,1.1171875,0.8526141,0.15515392,0.07080078,1.1171875,-5,1,12,-1,-5,-5,-4,-12
26.73850703239441,false,-0.33154297,0.046875,1.1210938,0.8503959,0.14318731,0.046875,1.1210938,-7,-7,-4,-3,-3,0,-1,-5
26.766579031944275,false,-0.3388672,0.0063476562,1.0698242,0.8476872,0.13007066,0.0063476562,1.0698242,-3,0,-7,1,4,0,0,2
26.796043038368225,false,-0.29785156,0.03857422,1.0507812,0.8440758,0.117922805,0.03857422,1.0507812,-2,-5,-4,-9,-5,1,-2,-6
26.798869967460632,false,-0.37841797,0.1381836,1.0512695,0.8396032,0.109802715,0.1381836,1.0512695,4,-2,-7,-4,2,-2,1,9
26.826600074768066,false,-0.41357422,0.22314453,1.0668945,0.83507127,0.104551755,0.22314453,1.0668945,4,6,5,11,0,0,-3,-8
26.856575965881348,false,-0.39697266,0.21240234,1.0288086,0.83044356,0.10058584,0.21240234,1.0288086,-1,-6,-5,-5,-2,-3,1,-1
26.859436988830566,false,-0.33154297,0.2607422,1.0200195,0.82558084,0.09790268,0.2607422,1.0200195,-5,1,10,5,-4,0,-1,-8
26.886680006980896,false,-0.28466797,0.2841797,0.93847656,0.8203707,0.09539762,0.2841797,0.93847656,5,-3,-1,3,2,1,-1,1
26.916015028953552,false,-0.22998047,0.25341797,0.82470703,0.8147776,0.09247045,0.25341797,0.82470703,4,-5,-7,-7,0,5,1,3
26.91859197616577,false,-0.17773438,0.2319336,0.76123047,0.8084117,0.0897218,0.2319336,0.76123047,5,6,4,5,4,2,-2,2
26.94657301902771,false,-0.16503906,0.17480469,0.72998047,0.8012014,0.08697433,0.17480469,0.72998047,1,-2,2,-4,-2,-3,1,1
26.975941061973572,false,-0.14257812,0.17041016,0.7480469,0.79277754,0.08447179,0.17041016,0.7480469,-1,-1,0,0,1,-5,-2,-2
26.978679060935974,false,-0.12548828,0.17578125,0.74560547,0.7830261,0.08197085,0.17578125,0.74560547,-1,4,4,-2,-1,-3,0,-1
27.006566047668457,false,-0.088378906,0.18115234,0.6850586,0.7721483,0.079894245,0.18115234,0.6850586,-3,2,1,2,2,-1,-3,-1
27.0361670255661,false,-0.015136719,0.16601562,0.6557617,0.7600007,0.07934476,0.16601562,0.6557617,2,-5,-12,-9,3,2,1,1
27.03862202167511,false,0.018066406,0.09375,0.6201172,0.74697596,0.08075251,0.09375,0.6201172,8,0,-6,-7,1,0,0,4
27.06678605079651,false,0.079589844,0.11425781,0.68115234,0.73201716,0.086733624,0.11425781,0.68115234,2,-1,-4,-3,-7,0,-1,-2
27.096351981163025,false,0.053710938,0.19042969,0.7753906,0.7155047,0.096983455,0.19042969,0.7753906,2,0,1,8,1,-1,-2,-8
27.09891402721405,false,0.056152344,0.29345703,0.81689453,0.69762033,0.10949527,0.29345703,0.81689453,-2,-3,-11,-9,-5,-3,1,5
27.127084016799927,false,0.08496094,0.3466797,0.83691406,0.6784614,0.12347314,0.3466797,0.83691406,-9,-7,-2,-9,-8,-1,-1,-2
27.15638303756714,false,0.071777344,0.4165039,0.8691406,0.6583212,0.13922034,0.4165039,0.8691406,-5,-6,3,-6,-11,0,-1,0
27.159013986587524,false,0.033691406,0.5253906,0.9238281,0.63689405,0.15594292,0.5253906,0.9238281,-4,9,6,4,3,1,-2,-1
27.186671018600464,false,-0.043945312,0.7290039,0.9824219,0.6145507,0.1737636,0.7290039,0.9824219,-4,18,3,8,0,-1,-5,0
27.21598207950592,false,-0.06542969,0.8378906,0.95410156,0.5929926,0.19005547,0.8378906,0.95410156,-5,-9,1,-11,6,-6,-1,0
27.219146966934204,false,-0.017089844,0.92529297,0.8691406,0.57263273,0.20288117,0.92529297,0.8691406,2,-10,-4,-2,13,3,2,8
27.246665000915527,false,0.0043945312,1.0258789,0.82128906,0.55351925,0.21172768,1.0258789,0.82128906,0,0,2,3,10,1,2,4
27.276082038879395,false,0.072753906,1.081543,0.8251953,0.536852,0.21514362,1.081543,0.8251953,-1,5,3,1,1,2,-1,-4
27.278609037399292,false,0.1274414,0.9790039,0.76220703,0.5219664,0.2134984,0.9790039,0.76220703,8,-11,5,-3,-5,5,5,4
27.30672800540924,false,0.17138672,0.7265625,0.5883789,0.50841135,0.20775896,0.7265625,0.5883789,-13,-9,4,14,-1,-4,-7,-11
27.336515069007874,false,0.2211914,0.61376953,0.34765625,0.4940774,0.19976719,0.61376953,0.34765625,11,7,1,24,-5,1,0,7
27.338526010513306,false,0.15136719,0.80371094,0.41455078,0.48052567,0.19494462,0.80371094,0.41455078,3,-34,-13,-40,-21,-7,1,-6
27.3667870759964,false,0.049804688,1.012207,0.3149414,0.46928465,0.18847068,1.012207,0.3149414,-4,1,-5,-4,7,-7,-5,-11
27.39711105823517,false,0.20458984,1.1083984,0.28271484,0.46542647,0.17723557,1.1083984,0.28271484,-27,13,2,-25,19,-5,0,-9
27.399453043937683,false,0.15283203,0.8989258,0.42285156,0.4678096,0.16503029,0.8989258,0.42285156,-2,14,-1,0,-11,0,9,-6
27.42683207988739,false,-0.024414062,0.7133789,0.6171875,0.47002888,0.15191558,0.7133789,0.6171875,40,10,-5,-18,-4,-1,-4,11
27.45644497871399,false,-0.13330078,0.6010742,0.7861328,0.47167295,0.14141643,0.6010742,0.7861328,36,13,6,-22,-31,4,2,5
27.45916998386383,false,-0.18261719,0.51171875,0.9169922,0.47442508,0.13629116,0.51171875,0.9169922,-23,-6,4,8,-1,3,-2,-5
27.487112045288086,false,-0.17041016,0.5253906,0.9199219,0.47521174,0.13781507,0.5253906,0.9199219,10,-1,-1,13,16,1,0,-1
27.51655399799347,false,-0.08496094,0.62890625,0.8310547,0.47466764,0.1439811,0.62890625,0.8310547,-4,-3,-1,-5,-2,-4,-4,0
27.518867015838623,false,-0.07421875,0.65234375,0.82714844,0.47574544,0.14977285,0.65234375,0.82714844,-19,-4,-6,8,-3,-2,-3,-2
27.54665207862854,false,-0.12890625,0.7324219,0.9111328,0.4769906,0.15362576,0.7324219,0.9111328,2,-1,1,16,32,-5,-20,-7
27.57608699798584,false,-0.0859375,0.69677734,0.93652344,0.47875378,0.15624805,0.69677734,0.93652344,-19,-6,-3,-8,-17,6,9,1
27.57856798171997,false,-0.07714844,0.5917969,1.0517578,0.4812472,0.15789302,0.5917969,1.0517578,-1,-2,-2,0,1,-4,1,-2
27.606925010681152,false,-0.087402344,0.4482422,1.0898438,0.48315805,0.15887575,0.4482422,1.0898438,36,3,-2,30,17,-6,-91,-12
27.636700987815857,false,-0.07763672,0.4477539,1.0839844,0.4827163,0.1618006,0.4477539,1.0839844,-13,-2,2,-15,-8,2,19,3
27.63918399810791,false,-0.049316406,0.5263672,0.953125,0.48106602,0.16649938,0.5263672,0.953125,-11,-2,0,-13,-13,-3,21,5
27.667093992233276,false,-0.034179688,0.5908203,0.9394531,0.48010665,0.17144923,0.5908203,0.9394531,14,9,4,-6,1,21,52,10
27.696274995803833,false,-0.083984375,0.61816406,0.94921875,0.47972605,0.17596059,0.61816406,0.94921875,41,17,-8,4,-4,-1,-3,5
27.699133038520813,false,-0.09472656,0.56933594,0.94384766,0.47990686,0.17852315,0.56933594,0.94384766,9,10,3,-8,-9,2,40,5
27.726922035217285,false,-0.10107422,0.53027344,0.97753906,0.48034078,0.18096702,0.53027344,0.97753906,-27,-17,-8,-44,-23,4,16,4
27.756479024887085,false,-0.114746094,0.49072266,0.9604492,0.4808449,0.18384168,0.49072266,0.9604492,-5,-6,-11,19,7,-18,-13,-6
27.786550998687744,false,-0.15966797,0.47021484,1.0234375,0.48107693,0.18749915,0.47021484,1.0234375,-13,3,-4,29,10,-8,-56,-6
27.788331985473633,false,-0.17919922,0.4482422,1.0048828,0.48046464,0.19091633,0.4482422,1.0048828,-6,-2,17,-7,1,6,20,-6
27.816439032554626,false,-0.10644531,0.6171875,0.9995117,0.47868925,0.19445416,0.6171875,0.9995117,-4,-10,20,-14,13,7,60,7
27.84604799747467,false,-0.109375,0.60302734,0.9663086,0.47813597,0.19658871,0.60302734,0.9663086,13,14,-5,30,7,28,-30,-14
27.848116993904114,false,-0.11816406,0.57470703,0.88964844,0.47668996,0.19793925,0.57470703,0.88964844,-7,-4,11,-1,0,-22,27,0
27.87594699859619,false,-0.16308594,0.59814453,0.7817383,0.47495043,0.20146638,0.59814453,0.7817383,-9,-12,-17,-20,-9,-1,-5,0
27.90595805644989,false,-0.2861328,0.5761719,0.77001953,0.47350103,0.20605046,0.5761719,0.77001953,2,4,48,-22,-8,5,-17,7
27.936182022094727,false,-0.27539062,0.60302734,0.88134766,0.47161838,0.21020496,0.60302734,0.88134766,6,-1,-22,-3,-3,-17,-17,-2
27.938148021697998,false,-0.14990234,0.5932617,0.9013672,0.46973333,0.21112365,0.5932617,0.9013672,-18,1,14,-10,-11,-8,67,8
27.965893983840942,false,-0.08642578,0.5053711,0.85791016,0.466981,0.21057174,0.5053711,0.85791016,4,1,-21,33,1,-15,-17,7
27.968647003173828,false,-0.10449219,0.5776367,0.8544922,0.46301594,0.21258694,0.5776367,0.8544922,9,3,21,32,14,20,91,10
27.997878074645996,false,-0.1303711,0.6479492,0.7841797,0.45878884,0.21508206,0.6479492,0.7841797,-17,1,3,-9,-1,20,71,20
28.025979042053223,false,-0.15283203,0.65966797,0.8623047,0.4557466,0.21710065,0.65966797,0.8623047,5,-2,-17,16,13,-1,-61,-18
28.028719067573547,false,-0.19824219,0.6171875,0.8486328,0.45311862,0.21758728,0.6171875,0.8486328,6,-2,-8,-13,0,14,70,6
28.056586027145386,false,-0.2109375,0.55371094,0.8540039,0.45036778,0.2181345,0.55371094,0.8540039,6,4,-1,-4,9,28,11,1
28.086518049240112,false,-0.15283203,0.5053711,0.88623047,0.44749483,0.21813236,0.5053711,0.88623047,-14,-6,5,-6,-8,-7,-2,-1
28.088268995285034,false,-0.16699219,0.6064453,0.81640625,0.44268256,0.21990697,0.6064453,0.81640625,-3,1,-4,-1,-8,1,99,8
28.115913033485413,false,-0.21533203,0.5625,0.8339844,0.43878838,0.221622,0.5625,0.8339844,0,-3,-1,-10,-3,-23,-46,-2
28.1460120677948,false,-0.16357422,0.5288086,0.8691406,0.43383664,0.22198422,0.5288086,0.8691406,-5,-2,-4,-6,-4,-15,-57,0
28.176014065742493,false,-0.14550781,0.5371094,0.70751953,0.42766187,0.22313854,0.5371094,0.70751953,-6,-2,-4,-5,1,-7,22,1
28.178125977516174,false,-0.2084961,0.5576172,0.7602539,0.4219862,0.22539704,0.5576172,0.7602539,13,1,3,6,-6,-8,5,4
28.206083059310913,false,-0.18554688,0.58447266,0.6855469,0.4157673,0.227903,0.58447266,0.6855469,-5,-3,-2,-5,-2,-9,-26,-2
28.236276030540466,false,-0.16699219,0.54541016,0.68408203,0.41093835,0.23009618,0.54541016,0.68408203,-30,-3,-1,-7,4,-22,-48,4
28.237807035446167,false,-0.23095703,0.70703125,0.7290039,0.40550753,0.23333162,0.70703125,0.7290039,20,0,2,7,-10,0,-53,-10
28.266098976135254,false,-0.36572266,0.6279297,0.5961914,0.40214378,0.23418207,0.6279297,0.5961914,-17,2,25,-23,-50,14,101,16
28.268049001693726,false,-0.33789062,0.61376953,0.47558594,0.39744824,0.23723607,0.61376953,0.47558594,2,-1,-8,12,-3,13,-4,-5
28.295876026153564,false,-0.24316406,0.35791016,1.4614258,0.39642513,0.23291121,0.35791016,1.4614258,12,-2,-5,-12,30,-6,-3,-6
28.325716972351074,false,-0.22265625,0.52441406,1.097168,0.3939715,0.23015748,0.52441406,1.097168,11,3,-6,-39,0,-1,-13,-4
28.35720705986023,false,-0.69873047,0.36279297,1.3613281,0.38718566,0.23033397,0.36279297,1.3613281,-6,0,1,70,-55,-24,-87,-4
28.38621199131012,false,-0.17480469,0.4946289,1.2163086,0.38518158,0.22795962,0.4946289,1.2163086,-11,-4,-1,20,-40,41,127,8
28.387521982192993,false,-0.28320312,0.57128906,0.77441406,0.38196096,0.22766289,0.57128906,0.77441406,28,5,-6,-58,29,33,88,1
28.416081070899963,false,-0.29052734,0.5703125,0.8652344,0.37908104,0.22875474,0.5703125,0.8652344,-8,-10,-4,13,18,-6,-31,1
28.4459890127182,false,-0.28857422,0.6040039,0.8803711,0.3762749,0.22936596,0.6040039,0.8803711,4,-2,-2,-5,25,-14,12,-6
28.44767701625824,false,-0.28271484,0.5908203,0.88134766,0.3741988,0.22930433,0.5908203,0.88134766,0,2,-2,-3,35,-2,22,-10
28.47591006755829,false,-0.2939453,0.5810547,0.8466797,0.37207502,0.22931197,0.5810547,0.8466797,12,5,-2,10,14,-10,-72,-6
28.50682497024536,false,-0.24707031,0.5517578,0.8154297,0.37018043,0.22931045,0.5517578,0.8154297,-24,-4,1,-15,-22,10,112,13
28.509189009666443,false,-0.24169922,0.57177734,0.8388672,0.3682184,0.22936593,0.57177734,0.8388672,3,1,-2,6,16,-4,-74,-8
28.535966992378235,false,-0.30273438,0.6088867,0.8442383,0.3662761,0.2295558,0.6088867,0.8442383,-12,0,4,-17,-8,-7,43,8
28.56617796421051,false,-0.31445312,0.56640625,0.8808594,0.3646844,0.22949177,0.56640625,0.8808594,31,-4,-3,-8,-13,-13,-26,-2
28.56807804107666,false,-0.28515625,0.54785156,0.8881836,0.36297715,0.22882149,0.54785156,0.8881836,8,4,0,25,27,-1,-54,-35
28.595960021018982,false,-0.2890625,0.5161133,0.88427734,0.36125642,0.22789854,0.5161133,0.88427734,-26,-9,-1,-23,-16,4,37,38
28.625931978225708,false,-0.2866211,0.55078125,0.8613281,0.35954976,0.22735067,0.55078125,0.8613281,-2,9,4,0,6,16,-15,-7
28.628301978111267,false,-0.3095703,0.5566406,0.89990234,0.3580319,0.22692849,0.5566406,0.89990234,19,-1,1,17,54,11,96,32
28.655968070030212,false,-0.27978516,0.5288086,0.89453125,0.35710764,0.22545815,0.5288086,0.89453125,-54,-2,3,-1,-10,-19,-66,-21
28.68649399280548,false,-0.28320312,0.49560547,0.91308594,0.3559597,0.2236345,0.49560547,0.91308594,-9,3,-1,5,5,-4,-32,-11
28.68816602230072,false,-0.31689453,0.4609375,0.90283203,0.35466608,0.22191806,0.4609375,0.90283203,21,-3,-2,-7,-11,-6,-59,-2
28.716297030448914,false,-0.30908203,0.46533203,0.90283203,0.35314575,0.2204567,0.46533203,0.90283203,14,-4,-4,-17,-14,-5,18,15
28.746667981147766,false,-0.3017578,0.47509766,0.9067383,0.35179684,0.21874389,0.47509766,0.9067383,-35,9,-1,-1,13,14,71,0
28.74927306175232,false,-0.30371094,0.44091797,0.90283203,0.35077026,0.21649244,0.44091797,0.90283203,28,-1,-4,-8,-15,-7,-14,-8
28.806437015533447,false,-0.33007812,0.44091797,0.8754883,0.3497899,0.21447596,0.44091797,0.8754883,-4,-4,-1,3,1,19,68,5
28.808480978012085,false,-0.34960938,0.39257812,0.85498047,0.34912205,0.21240292,0.39257812,0.85498047,6,4,0,-1,-3,-14,-11,-3
28.810109972953796,false,-0.35742188,0.39453125,0.84521484,0.34833142,0.2109398,0.39453125,0.84521484,-8,-6,-2,-4,-14,-3,-16,-4
28.835909962654114,false,-0.2626953,0.37304688,0.83740234,0.3485022,0.2096506,0.37304688,0.83740234,-17,-8,-4,-3,-11,8,-39,-1
28.866006016731262,false,-0.3173828,0.4375,0.58984375,0.3481421,0.20715186,0.4375,0.58984375,-2,2,-2,23,-2,-6,-43,-3
28.895961046218872,false,-0.26757812,0.5678711,0.58203125,0.34917307,0.20189905,0.5678711,0.58203125,-15,0,-2,-33,-24,11,36,-2
28.92597806453705,false,-0.3955078,0.3046875,0.83447266,0.34966442,0.19921532,0.3046875,0.83447266,1,3,2,-74,9,-6,-28,13
28.92807102203369,false,-0.32177734,0.39257812,0.9448242,0.35039023,0.19878435,0.39257812,0.9448242,7,-7,-10,44,-9,3,31,3
28.955918073654175,false,-0.3618164,0.3540039,0.9238281,0.35209826,0.19719699,0.3540039,0.9238281,3,6,12,11,56,6,63,8
28.98623502254486,false,-0.36523438,0.3149414,0.89208984,0.35399753,0.19500381,0.3149414,0.89208984,27,0,0,-7,7,2,-12,6
28.98819601535797,false,-0.3305664,0.3022461,0.90722656,0.3567443,0.1924405,0.3022461,0.90722656,4,3,2,12,4,0,-14,5
29.01624608039856,false,-0.3100586,0.23583984,0.8852539,0.36015853,0.1892648,0.23583984,0.8852539,1,-3,-2,-63,1,0,-12,-12
29.046369075775146,false,-0.25976562,0.14746094,0.86035156,0.36205614,0.18627703,0.14746094,0.86035156,7,3,0,27,10,6,7,2
29.04866898059845,false,-0.1875,0.19677734,0.87597656,0.36266205,0.18468787,0.19677734,0.87597656,-1,-5,-5,11,9,4,-7,-3
29.07639706134796,false,-0.234375,0.3383789,0.94091797,0.36334002,0.1846302,0.3383789,0.94091797,-2,-3,-2,3,7,-3,-15,-10
29.106284976005554,false,-0.31396484,0.37402344,0.95654297,0.36510503,0.1846887,0.37402344,0.95654297,-1,-1,-1,1,-1,14,50,1
29.10899305343628,false,-0.35986328,0.33496094,0.9482422,0.36737052,0.18469234,0.33496094,0.9482422,10,3,-1,25,19,0,8,3
29.13590097427368,false,-0.3017578,0.36376953,0.9042969,0.3699894,0.18475056,0.36376953,0.9042969,-14,-5,-2,-11,-8,-7,-5,-2
29.16615903377533,false,-0.27246094,0.38867188,0.85498047,0.37433115,0.18542607,0.38867188,0.85498047,4,0,0,-16,-27,-15,-56,-6
29.16822099685669,false,-0.29003906,0.4560547,0.86279297,0.37957826,0.18658479,0.4560547,0.86279297,1,0,-4,16,11,-8,-13,-1
29.195903062820435,false,-0.30517578,0.35888672,0.83496094,0.3861013,0.18682519,0.35888672,0.83496094,6,-1,-1,14,2,-3,-23,-5
29.22598707675934,false,-0.3017578,0.32421875,0.859375,0.39220545,0.18706967,0.32421875,0.859375,-6,0,1,9,16,6,10,-1
29.28597402572632,false,-0.28808594,0.30078125,0.8642578,0.39842892,0.18816733,0.30078125,0.8642578,-2,1,5,-17,-13,4,3,-3
29.2878919839859,false,-0.31591797,0.32373047,0.90234375,0.4044099,0.19073059,0.32373047,0.90234375,-29,-7,-1,-11,2,1,10,-6
29.29012405872345,false,-0.3544922,0.36572266,0.9316406,0.41088393,0.19360128,0.36572266,0.9316406,39,6,-7,12,-10,-12,-29,0
29.31640601158142,false,-0.33251953,0.36572266,0.91845703,0.42437765,0.19635019,0.36572266,0.91845703,0,-4,-2,-2,15,4,7,2
29.346201062202454,false,-0.32226562,0.35351562,0.8833008,0.43151912,0.1978152,0.35351562,0.8833008,-7,1,1,-2,13,0,9,-2
29.348760962486267,false,-0.3383789,0.39404297,0.8491211,0.43896443,0.20037822,0.39404297,0.8491211,0,-3,1,-18,-21,-13,-19,-5
29.37584400177002,false,-0.33691406,0.42626953,0.83691406,0.4476361,0.20282176,0.42626953,0.83691406,3,1,0,-2,-13,-1,5,3
29.40590798854828,false,-0.2836914,0.43652344,0.8701172,0.45799083,0.20470433,0.43652344,0.8701172,-4,-4,1,-4,-2,-2,15,1
29.43607199192047,false,-0.23242188,0.38378906,0.87402344,0.4696459,0.20549677,0.38378906,0.87402344,7,2,-1,-28,-27,-4,-8,-2
29.438260078430176,false,-0.27783203,0.35888672,0.94091797,0.48163313,0.2062398,0.35888672,0.94091797,-6,2,0,0,-1,1,14,1
29.465996026992798,false,-0.2915039,0.2944336,0.96240234,0.4942565,0.20708969,0.2944336,0.96240234,-8,-1,2,5,-9,12,28,1
29.49593997001648,false,-0.23046875,0.3461914,0.8334961,0.5164227,0.21954526,0.3461914,0.8334961,3,2,16,44,-8,-1,2,2
29.526731967926025,false,-0.20214844,0.5566406,0.85546875,0.52942103,0.23034759,0.5566406,0.85546875,17,0,-8,-3,7,-3,-3,9
29.52799105644226,false,-0.31152344,0.65771484,0.9819336,0.5449729,0.23858204,0.65771484,0.9819336,25,5,6,21,-3,-2,2,6
29.555881023406982,false,-0.38720703,0.70996094,1.0366211,0.5626208,0.24206488,0.70996094,1.0366211,-3,5,4,23,9,-2,0,9
29.58618998527527,false,-0.29785156,0.56591797,1.0214844,0.5819152,0.24090827,0.56591797,1.0214844,-6,2,7,10,12,-1,1,8
29.588294982910156,false,-0.17822266,0.47607422,1.0014648,0.60131514,0.23864618,0.47607422,1.0014648,0,0,6,14,9,0,-1,2
29.61591398715973,false,-0.14355469,0.45898438,0.9785156,0.6199963,0.23675582,0.45898438,0.9785156,-6,0,-4,7,0,2,-2,3
29.64586102962494,false,-0.17822266,0.48095703,0.97558594,0.63738686,0.23614381,0.48095703,0.97558594,5,1,0,-4,-6,1,2,3
29.648056983947754,false,-0.18164062,0.46484375,0.96484375,0.65460765,0.23547566,0.46484375,0.96484375,-10,0,1,-3,12,-2,4,3
29.67601501941681,false,-0.17773438,0.4326172,0.9785156,0.6712725,0.23492706,0.4326172,0.9785156,-3,1,10,28,8,-2,-2,-2
29.706151008605957,false,-0.19335938,0.37158203,0.96728516,0.68664986,0.2349258,0.37158203,0.96728516,11,-1,-3,-5,-1,-2,-3,2
29.708237051963806,false,-0.22460938,0.37304688,1.0043945,0.70057595,0.23547849,0.37304688,1.0043945,0,-2,-6,-15,-16,-1,1,1
29.736202001571655,false,-0.2763672,0.4326172,1.0429688,0.71289504,0.23724513,0.4326172,1.0429688,10,0,-6,-2,8,-5,-2,-1
29.766265988349915,false,-0.2446289,0.33789062,0.9760742,0.72425646,0.24023879,0.33789062,0.9760742,-2,-6,-13,-11,1,0,3,10
29.76793098449707,false,-0.1928711,0.2607422,1.0449219,0.7346203,0.24420203,0.2607422,1.0449219,-10,-8,-20,-23,-12,0,-3,-5
29.795971035957336,false,-0.27734375,0.32470703,1.1835938,0.7426847,0.2489654,0.32470703,1.1835938,-6,3,27,25,6,-1,-1,-1
29.826061010360718,false,-0.24267578,0.45703125,1.1269531,0.7492566,0.25365838,0.45703125,1.1269531,2,-3,-5,9,-8,0,-3,1
29.828546047210693,false,-0.15917969,0.5097656,1.0073242,0.7554774,0.25750196,0.5097656,1.0073242,-2,-1,-7,-20,-6,-3,1,3
29.855942010879517,false,-0.1274414,0.45117188,0.953125,0.7625727,0.25903302,0.45117188,0.953125,-4,-3,3,-1,5,-1,-3,-5
29.886222004890442,false,-0.12060547,0.41210938,0.9243164,0.7699497,0.25890818,0.41210938,0.9243164,3,-2,-6,-5,1,-2,4,2
29.88817799091339,false,-0.15673828,0.3881836,0.95703125,0.7770409,0.25866777,0.3881836,0.95703125,-6,-1,-6,0,5,1,0,1
29.916035056114197,false,-0.17626953,0.3803711,0.99072266,0.7837189,0.25690597,0.3803711,0.99072266,8,-1,-6,-11,6,2,1,2
29.946058988571167,false,-0.13134766,0.3383789,0.95458984,0.78912276,0.25500464,0.3383789,0.95458984,3,1,-9,12,6,0,2,2
29.94769299030304,false,-0.079589844,0.34423828,0.9116211,0.7937034,0.25354072,0.34423828,0.9116211,-3,-3,-7,-5,1,3,1,0
29.97579300403595,false,-0.095214844,0.40234375,0.90283203,0.7969173,0.25328994,0.40234375,0.90283203,-1,0,2,9,-4,-3,3,11
30.0057430267334,false,-0.15722656,0.45703125,0.87939453,0.7995087,0.25232223,0.45703125,0.87939453,-4,-6,-14,-21,-8,-4,-9,-7
30.00780701637268,false,-0.1796875,0.51171875,0.8725586,0.8014705,0.25153148,0.51171875,0.8725586,2,4,12,14,9,3,2,-3
30.035812973976135,false,-0.18017578,0.5185547,0.8330078,0.80322784,0.24994057,0.5185547,0.8330078,0,-1,-4,8,7,-3,0,0
30.065800070762634,false,-0.1303711,0.46289062,0.76904297,0.8048488,0.24732651,0.46289062,0.76904297,-4,-5,-5,-9,-5,2,2,5
30.06681001186371,false,-0.08496094,0.40527344,0.8286133,0.80592644,0.24579415,0.40527344,0.8286133,-15,-1,0,12,4,4,-4,9
30.096683979034424,false,-0.19970703,0.45996094,0.8129883,0.80632997,0.24218586,0.45996094,0.8129883,-58,-22,9,-44,-57,-10,-7,-23
30.125850081443787,false,-0.20800781,0.3095703,0.7988281,0.80507916,0.23957056,0.3095703,0.7988281,20,9,-3,20,30,3,2,6
30.12774896621704,false,-0.17578125,0.3310547,0.7685547,0.8021941,0.241763,0.3310547,0.7685547,25,4,-5,1,-4,-3,-1,11
30.155969977378845,false,-0.23291016,0.33789062,0.80859375,0.7973764,0.24866132,0.33789062,0.80859375,-7,1,3,-3,4,2,0,5
30.186249017715454,false,-0.36523438,0.36523438,0.8051758,0.7909695,0.25891602,0.36523438,0.8051758,0,0,-5,-1,7,2,-2,-13
30.189465045928955,false,-0.41357422,0.42626953,0.8149414,0.78333247,0.2695948,0.42626953,0.8149414,-16,-1,-1,-15,-9,-3,3,-2
30.216019988059998,false,-0.33984375,0.65234375,0.89990234,0.774768,0.28075728,0.65234375,0.89990234,-1,6,1,4,-7,2,-6,-12
30.24603307247162,false,-0.4555664,1.2519531,1.015625,0.7702835,0.28687263,1.2519531,1.015625,1,-7,2,-4,10,30,2,17
30.248409032821655,false,-0.3618164,0.8457031,0.76708984,0.7736312,0.2771034,0.8457031,0.76708984,0,13,0,-6,0,-13,-29,-5
30.276363968849182,false,-0.3774414,0.47460938,0.93066406,0.777183,0.26416776,0.47460938,0.93066406,-9,-7,-2,2,11,0,-1,1
30.30625307559967,false,-0.1459961,0.28320312,0.92871094,0.78016883,0.25372884,0.28320312,0.92871094,-4,-8,-6,-1,-12,-29,-10,12
30.3085880279541,false,-0.023925781,0.36572266,1.0600586,0.7797362,0.25098047,0.36572266,1.0600586,-2,2,-2,-7,-7,4,21,29
30.33642303943634,false,-0.09716797,0.50927734,1.0493164,0.7774678,0.2537848,0.50927734,1.0493164,47,1,0,32,33,3,8,-5
30.366091012954712,false,-0.088378906,0.59228516,1.0244141,0.7752798,0.2572059,0.59228516,1.0244141,-32,13,1,-11,-9,-8,8,-25
30.368484020233154,false,-0.1328125,0.5620117,0.95654297,0.77326804,0.25793913,0.5620117,0.95654297,-10,-9,-2,-3,1,6,2,-31
30.396327018737793,false,-0.119140625,0.54003906,0.9682617,0.7713572,0.25799388,0.54003906,0.9682617,13,-3,-2,1,-13,-2,-45,16
30.42620098590851,false,-0.115234375,0.5854492,0.9550781,0.7688539,0.26049602,0.5854492,0.9550781,2,0,1,0,9,6,1,-10
30.42777407169342,false,-0.087402344,0.5854492,0.91552734,0.7667332,0.26300377,0.5854492,0.91552734,-24,-11,0,-14,-7,19,51,3
30.457126021385193,false,-0.09375,0.6254883,0.9199219,0.76424235,0.26599857,0.6254883,0.9199219,19,6,2,10,10,-4,14,-13
30.486139059066772,false,-0.09667969,0.63916016,0.9169922,0.7615561,0.26746324,0.63916016,0.9169922,-24,-1,2,-11,8,-2,37,9
30.488893032073975,false,-0.091308594,0.6220703,0.88183594,0.758195,0.269476,0.6220703,0.88183594,-3,-3,1,-19,-22,0,16,-22
30.516532063484192,false,-0.032226562,0.5229492,0.78808594,0.7540295,0.2709965,0.5229492,0.78808594,0,1,-2,3,-5,-2,-27,-2
30.546529054641724,false,0.0068359375,0.47607422,0.7363281,0.74779665,0.27532735,0.47607422,0.7363281,-1,-2,-2,-8,10,-10,-23,8
30.54825007915497,false,-0.008300781,0.5493164,0.6713867,0.7396402,0.28363657,0.5493164,0.6713867,5,6,-2,4,-10,-10,-24,-2
30.577160000801086,false,-0.04736328,0.66552734,0.61328125,0.7308837,0.29345208,0.66552734,0.61328125,8,3,-3,6,7,-4,-22,1
30.606996059417725,false,-0.043945312,0.7607422,0.57470703,0.72315574,0.3039598,0.7607422,0.57470703,4,1,0,2,10,-1,8,4
30.636186003684998,false,-0.068359375,0.80371094,0.56640625,0.7179624,0.31238046,0.80371094,0.56640625,5,2,1,-6,8,-2,-13,-5
30.638334035873413,false,-0.09472656,0.80566406,0.55566406,0.71515197,0.31781143,0.80566406,0.55566406,9,1,-2,10,21,2,-3,3
30.665971994400024,false,-0.043945312,0.71875,0.43701172,0.71504325,0.32099125,0.71875,0.43701172,-13,-5,-1,3,-10,-9,1,-14
30.66820204257965,false,-0.14257812,0.8173828,0.2998047,0.71492416,0.32691315,0.8173828,0.2998047,-7,-6,2,15,-7,-6,1,-14
30.69655203819275,false,-0.09277344,0.6010742,1.2285156,0.7208858,0.32488996,0.6010742,1.2285156,6,-1,-1,55,15,2,4,3
30.725718021392822,false,-0.11767578,0.8017578,1.1123047,0.7258884,0.32317993,0.8017578,1.1123047,1,-9,-2,29,-10,-9,-2,-11
30.727434039115906,false,-0.25097656,0.81884766,0.4663086,0.72867346,0.3244178,0.81884766,0.4663086,-1,1,-2,-49,-26,-9,-1,0
30.756113052368164,false,-0.16796875,0.6508789,0.7402344,0.73323,0.3230045,0.6508789,0.7402344,-3,-12,0,-9,-10,2,-7,2
30.785832047462463,false,-0.115234375,0.53222656,0.7402344,0.73805463,0.3216629,0.53222656,0.7402344,-2,2,-1,1,12,0,-7,-3
30.78798007965088,false,-0.12402344,0.59033203,0.7788086,0.74309665,0.32000458,0.59033203,0.7788086,-10,1,-2,-23,-8,-5,-5,-3
30.816091060638428,false,-0.16845703,0.7089844,0.88134766,0.7488658,0.31714946,0.7089844,0.88134766,8,5,3,-5,0,8,4,-4
30.84611701965332,false,-0.13916016,0.71533203,0.8574219,0.7543938,0.31304902,0.71533203,0.8574219,3,1,-4,-5,5,-4,-9,2
30.84830403327942,false,-0.14013672,0.61328125,0.9042969,0.7600136,0.30853426,0.61328125,0.9042969,-2,1,6,-10,3,-6,-5,-12
30.876139998435974,false,-0.14697266,0.5317383,0.9614258,0.76472306,0.30548638,0.5317383,0.9614258,5,-3,-1,4,1,1,5,14
30.905894994735718,false,-0.12207031,0.5708008,0.93652344,0.7670969,0.30578893,0.5708008,0.93652344,0,-4,-5,7,5,5,6,0
30.90736997127533,false,-0.09667969,0.6738281,0.8930664,0.7681477,0.3091512,0.6738281,0.8930664,-9,4,7,32,-6,-1,0,-14
30.93606400489807,false,-0.095703125,0.7597656,0.9008789,0.76625144,0.31769466,0.7597656,0.9008789,7,-1,-8,-9,4,-2,2,5
30.965846061706543,false,-0.16308594,0.6503906,0.6152344,0.7647753,0.32696736,0.6503906,0.6152344,0,6,-7,-8,3,-2,0,17
30.967602968215942,false,-0.087890625,0.8183594,0.64941406,0.7691737,0.3283728,0.8183594,0.64941406,-18,-4,6,-41,-23,-3,1,-10
30.995926022529602,false,-0.06933594,0.73046875,0.68310547,0.7758217,0.32733315,0.73046875,0.68310547,-8,9,22,26,8,-1,-4,-11
31.02582097053528,false,-0.06298828,0.75683594,0.65966797,0.7820944,0.32610664,0.75683594,0.65966797,6,4,-11,3,1,3,3,15
31.027704000473022,false,-0.09863281,0.82373047,0.7294922,0.7899105,0.32397196,0.82373047,0.7294922,-7,-13,-2,-8,-3,-4,-7,-16
31.0569030046463,false,-0.11669922,0.7260742,0.7832031,0.80023134,0.31719947,0.7260742,0.7832031,2,-6,-5,-9,-11,-5,0,0
31.086114048957825,false,-0.057617188,0.63720703,0.83935547,0.8112313,0.30634037,0.63720703,0.83935547,10,3,-3,5,8,2,2,7
31.088616967201233,false,-0.013671875,0.5957031,0.87353516,0.8222254,0.29425794,0.5957031,0.87353516,5,-3,-14,-14,5,-3,3,2
31.116538047790527,false,0.012207031,0.50634766,0.88623047,0.83368635,0.27942133,0.50634766,0.88623047,-9,-6,-2,-7,-5,0,0,1
31.15548801422119,false,0.013183594,0.49169922,0.98291016,0.84500664,0.26118055,0.49169922,0.98291016,-2,0,-5,-3,-1,-2,2,7
31.184938073158264,false,-0.011230469,0.4868164,1.0439453,0.8560904,0.23999341,0.4868164,1.0439453,1,1,4,4,7,1,-1,0
31.206156969070435,false,-0.032714844,0.44140625,1.0483398,0.8666823,0.21680792,0.44140625,1.0483398,4,-1,0,2,-4,-2,0,5
31.20884096622467,false,-0.027832031,0.3330078,1.0419922,0.8764378,0.19354998,0.3330078,1.0419922,-1,0,4,-2,2,-2,-2,-5
31.211416006088257,false,-0.017089844,0.22021484,1.0375977,0.8849601,0.17273171,0.22021484,1.0375977,-3,0,-4,-3,10,1,-3,-6
31.236005067825317,false,-0.029785156,0.1328125,1.0229492,0.891906,0.15618883,0.1328125,1.0229492,6,0,-3,0,2,-2,-3,8
31.265825033187866,false,0.005859375,0.13476562,0.96191406,0.8972824,0.14325024,0.13476562,0.96191406,-5,0,7,-3,-8,-3,-1,7
31.267999053001404,false,-0.0234375,0.1616211,1.0170898,0.90146506,0.13477114,0.1616211,1.0170898,-10,-3,-1,-6,-7,1,-2,-5
31.296035051345825,false,-0.09863281,0.1303711,1.0878906,0.9048214,0.12799585,0.1303711,1.0878906,4,1,2,-6,-18,0,2,-2
31.32582199573517,false,-0.10986328,0.11669922,1.1152344,0.90712786,0.12127998,0.11669922,1.1152344,0,1,-3,0,1,2,-1,-5
31.32751500606537,false,-0.12011719,0.119628906,1.1279297,0.90836114,0.11542205,0.119628906,1.1279297,2,-2,-3,0,0,-3,-2,-2
31.356251001358032,false,-0.104003906,0.046875,1.0805664,0.9087249,0.11005044,0.046875,1.0805664,6,-4,-3,4,0,-2,-1,1
31.386077046394348,false,-0.06640625,-0.0390625,1.0244141,0.90778184,0.107788794,-0.0390625,1.0244141,-2,-1,1,-1,-3,1,-2,-3
31.388231992721558,false,-0.08251953,-0.11621094,0.99560547,0.90514445,0.11138831,-0.11621094,0.99560547,-3,3,-2,-5,7,1,-2,1
31.4161319732666,false,-0.1508789,-0.060546875,0.99853516,0.9002656,0.12347371,-0.060546875,0.99853516,-11,2,3,1,2,-2,-2,-2
31.44576096534729,false,-0.20410156,0.06689453,0.92578125,0.89362466,0.14209126,0.06689453,0.92578125,2,-2,-2,4,1,-3,-1,1
31.447545051574707,false,-0.2626953,0.21533203,0.8745117,0.88577336,0.16071121,0.21533203,0.8745117,-5,-4,-5,-4,-7,0,0,0
31.476181983947754,false,-0.28710938,0.32714844,0.8227539,0.8775108,0.17596604,0.32714844,0.8227539,-4,-1,1,-1,-1,1,0,-1
31.506818056106567,false,-0.32421875,0.38085938,0.8149414,0.8696526,0.18494157,0.38085938,0.8149414,-6,-4,-2,-13,-4,1,2,-6
31.508780002593994,false,-0.3828125,0.43310547,0.82128906,0.862734,0.18664595,0.43310547,0.82128906,7,2,-1,2,6,-1,0,3
31.56687903404236,false,-0.39013672,0.3359375,0.81103516,0.85687685,0.18219085,0.3359375,0.81103516,-3,1,-3,-7,-4,0,-1,0
31.597511053085327,false,-0.41503906,0.24511719,0.8540039,0.85127234,0.17645575,0.24511719,0.8540039,-1,1,-1,-3,-1,-2,-3,-1
31.600458025932312,false,-0.5097656,0.2763672,0.94677734,0.83822536,0.17639783,0.2763672,0.94677734,-2,-2,-1,-5,-4,-2,-1,-2
31.626103043556213,false,-0.5708008,0.5727539,1.2724609,0.8316696,0.18292336,0.5727539,1.2724609,-2,-1,0,-10,5,-5,-4,-2
31.627658009529114,false,-0.5683594,0.48779297,0.9321289,0.8276358,0.18749979,0.48779297,0.9321289,31,15,-4,32,31,-11,3,19
31.656599044799805,false,-0.23291016,0.26464844,0.9511719,0.82554436,0.18598402,0.26464844,0.9511719,-29,-12,1,-37,-33,5,-8,-13
31.685878038406372,false,-0.33496094,0.2397461,0.9428711,0.82251495,0.18914914,0.2397461,0.9428711,3,2,-1,9,10,2,2,-4
31.687957048416138,false,-0.3178711,0.3461914,0.92089844,0.820272,0.19165519,0.3461914,0.92089844,-1,-5,2,0,-5,-1,-6,6
31.716052055358887,false,-0.3388672,0.44726562,0.83935547,0.81897587,0.19165184,0.44726562,0.83935547,5,0,-1,3,-1,2,7,0
31.745790004730225,false,-0.3383789,0.45703125,0.88671875,0.8188007,0.18823566,0.45703125,0.88671875,-3,0,-1,-2,-1,-1,2,-3
31.74775803089142,false,-0.3564453,0.35839844,0.90625,0.8198756,0.18285917,0.35839844,0.90625,-7,-2,-2,-4,-2,-7,2,5
31.775982975959778,false,-0.32861328,0.22949219,0.92871094,0.821543,0.17724821,0.22949219,0.92871094,0,-3,0,-1,-3,4,-1,0
31.80618906021118,false,-0.29833984,0.21435547,0.94970703,0.8228968,0.17401563,0.21435547,0.94970703,-3,-3,0,-6,-7,1,-2,-1
31.808537006378174,false,-0.28222656,0.26904297,0.97998047,0.8245977,0.17199974,0.26904297,0.97998047,0,2,-1,3,0,0,-2,-1
31.8364759683609,false,-0.23095703,0.2919922,1.0009766,0.82679373,0.16894767,0.2919922,1.0009766,4,-2,0,-1,1,-1,1,-2
31.866088032722473,false,-0.21582031,0.2763672,1.0327148,0.829473,0.1646739,0.2763672,1.0327148,-3,-4,-5,3,1,-4,-2,4
31.868250966072083,false,-0.19628906,0.21826172,1.0585938,0.83242685,0.15942946,0.21826172,1.0585938,-1,0,0,0,0,-1,0,2
31.895990014076233,false,-0.1928711,0.18457031,1.0571289,0.83535236,0.15448464,0.18457031,1.0571289,6,9,-2,0,3,2,-1,-11
31.925840973854065,false,-0.21484375,0.15283203,1.03125,0.838118,0.1502765,0.15283203,1.03125,-2,2,-3,-6,0,-2,-2,0
31.92783796787262,false,-0.25,0.14550781,1.0014648,0.84029174,0.14752561,0.14550781,1.0014648,2,-2,0,4,2,-1,-2,2
31.95651400089264,false,-0.25390625,0.17236328,1.0224609,0.842064,0.14661045,0.17236328,1.0224609,3,-3,0,-5,0,1,-1,3
31.985241055488586,false,-0.2631836,0.21289062,0.9707031,0.8439003,0.14581788,0.21289062,0.9707031,0,3,0,-6,3,0,-1,-5
31.986966967582703,false,-0.28466797,0.22314453,0.96777344,0.8456572,0.14441176,0.22314453,0.96777344,4,-1,-1,6,1,-3,-4,-1
32.015966057777405,false,-0.3046875,0.19433594,0.9584961,0.8473087,0.14282541,0.19433594,0.9584961,12,4,-1,4,7,-2,-5,5
32.04595506191254,false,-0.31054688,0.16748047,0.9760742,0.84891087,0.1417293,0.16748047,0.9760742,1,-2,0,4,2,2,2,2
32.04747200012207,false,-0.29833984,0.18652344,0.9716797,0.85047966,0.14087176,0.18652344,0.9716797,-21,-10,-1,-22,-13,1,8,-8
32.07561504840851,false,-0.2861328,0.16015625,0.9716797,0.85200286,0.14007784,0.16015625,0.9716797,-8,11,-1,-5,-10,-4,1,-4
32.10546004772186,false,-0.29003906,0.14892578,0.98046875,0.85321164,0.13964863,0.14892578,0.98046875,-1,1,-1,1,-11,0,-3,0
32.10726296901703,false,-0.27539062,0.12841797,1.003418,0.85424745,0.1397704,0.12841797,1.003418,6,-7,0,-2,17,1,3,-1
32.13633596897125,false,-0.2758789,0.13769531,1.015625,0.8552434,0.14044498,0.13769531,1.015625,-6,-5,1,-3,0,0,-14,1
32.16609001159668,false,-0.25976562,0.15820312,0.9916992,0.85622513,0.14154449,0.15820312,0.9916992,-5,-11,-1,-4,-13,0,-14,2
32.16821098327637,false,-0.25341797,0.15771484,1.0209961,0.8572624,0.14191064,0.15771484,1.0209961,-4,3,-3,6,5,0,-10,-14
32.19678997993469,false,-0.24316406,0.15234375,1.0205078,0.8581452,0.14245455,0.15234375,1.0205078,-4,-5,-3,-8,-4,-7,-11,-9
32.25611197948456,false,-0.20703125,0.15527344,1.0205078,0.8589998,0.1426987,0.15527344,1.0205078,5,-9,-1,-14,-8,0,14,-25
32.25852596759796,false,-0.18017578,0.18164062,1.0449219,0.85968983,0.14386147,0.18164062,1.0449219,6,16,4,17,-15,0,-22,15
32.26072406768799,false,-0.16113281,0.20507812,1.0473633,0.86005306,0.14618033,0.20507812,1.0473633,1,0,2,-5,19,-1,51,26
32.28622603416443,false,-0.13183594,0.21972656,1.0566406,0.8605882,0.14752069,0.21972656,1.0566406,11,7,-2,0,-40,4,16,11
32.28864800930023,false,-0.17089844,0.24072266,1.03125,0.86100566,0.14917749,0.24072266,1.03125,-2,-2,-3,-2,38,-6,-4,11
32.31671106815338,false,-0.22802734,0.20703125,1.0141602,0.8618493,0.14966391,0.20703125,1.0141602,0,5,0,1,-10,-2,-6,6
32.34591507911682,false,-0.2602539,0.1977539,0.9941406,0.8625099,0.14984515,0.1977539,0.9941406,-8,-6,-2,-7,-12,-8,-18,-4
32.348247051239014,false,-0.29003906,0.21484375,0.9716797,0.8631001,0.15039097,0.21484375,0.9716797,0,-5,-3,0,-5,3,3,11
32.37684202194214,false,-0.28857422,0.17236328,0.98291016,0.8636561,0.15057524,0.17236328,0.98291016,-1,1,-1,-11,4,2,29,-4
32.40602099895477,false,-0.29736328,0.16699219,0.97558594,0.8638282,0.15173298,0.16699219,0.97558594,-2,-1,-2,-2,-5,-4,-13,-3
32.40843307971954,false,-0.28466797,0.20654297,0.9550781,0.8635822,0.15392992,0.20654297,0.9550781,0,-1,0,-3,-1,0,13,0
32.436761021614075,false,-0.28222656,0.25195312,0.9614258,0.8635652,0.15662344,0.25195312,0.9614258,-4,-4,0,-3,-3,5,-3,-9
32.46604299545288,false,-0.2836914,0.23632812,0.9433594,0.86368084,0.15839235,0.23632812,0.9433594,8,12,-2,10,6,4,23,1
32.468414068222046,false,-0.26171875,0.19824219,0.9614258,0.8638519,0.15936673,0.19824219,0.9614258,3,3,-1,5,0,-1,-10,-3
32.496729016304016,false,-0.2548828,0.17675781,0.9580078,0.8637328,0.16028284,0.17675781,0.9580078,-1,0,-2,-6,-6,6,16,11
32.525853991508484,false,-0.25976562,0.21191406,0.9741211,0.8633603,0.16247897,0.21191406,0.9741211,-6,-6,0,-1,2,-5,-15,-9
32.55616998672485,false,-0.25048828,0.2368164,0.9633789,0.86285347,0.16479482,0.2368164,0.9633789,-2,-2,-1,-5,-1,-4,-13,-12
32.55784296989441,false,-0.25048828,0.22363281,0.9375,0.86234796,0.1673668,0.22363281,0.9375,-1,-3,0,0,0,4,12,-30
32.586682081222534,false,-0.24658203,0.24511719,0.94677734,0.86165345,0.17090243,0.24511719,0.94677734,-30,-15,-3,-11,-8,-33,-44,2
32.588441014289856,false,-0.26220703,0.2861328,0.93408203,0.8610566,0.17487256,0.2861328,0.93408203,13,10,3,9,8,15,37,-9
32.61711800098419,false,-0.25097656,0.27734375,0.92285156,0.8605577,0.1780443,0.27734375,0.92285156,-2,-4,-2,-3,-4,-1,-8,-1
32.64608705043793,false,-0.26220703,0.29492188,0.9267578,0.86008835,0.18085599,0.29492188,0.9267578,4,5,1,11,7,-2,-9,6
32.64865803718567,false,-0.24511719,0.26953125,0.9091797,0.85967886,0.1824338,0.26953125,0.9091797,16,0,-1,-70,-7,4,-3,24
32.677278995513916,false,-0.23291016,0.31445312,0.8642578,0.85838217,0.1865199,0.31445312,0.8642578,19,36,-11,53,-1,-8,-14,5
32.70597004890442,false,-0.24560547,0.37451172,0.79589844,0.85665745,0.19245036,0.37451172,0.79589844,8,-3,13,-32,-19,-2,-24,8
32.70813596248627,false,-0.23583984,0.43408203,0.83935547,0.8560357,0.19641519,0.43408203,0.83935547,-16,-34,-1,-30,5,2,-11,-18
32.73673498630524,false,-0.24853516,0.4482422,0.91552734,0.8560193,0.19799833,0.4482422,0.91552734,-10,0,1,23,4,5,4,-12
32.765608072280884,false,-0.21923828,0.390625,1.0078125,0.8567198,0.19654016,0.390625,1.0078125,3,6,-3,5,-6,-22,5,-11
32.76806998252869,false,-0.20996094,0.3413086,1.1274414,0.8578304,0.1931858,0.3413086,1.1274414,19,6,-6,6,0,-1,-20,2
32.79698407649994,false,-0.13232422,0.27294922,1.1655273,0.8588655,0.18860738,0.27294922,1.1655273,-24,-6,-1,3,9,8,3,-3
32.82673907279968,false,-0.12646484,0.2602539,1.1953125,0.85974777,0.18536519,0.2602539,1.1953125,11,0,-1,9,6,-3,57,22
32.82937800884247,false,-0.18359375,0.22314453,1.1738281,0.8604687,0.18188372,0.22314453,1.1738281,1,2,4,4,11,10,-9,-2
32.856898069381714,false,-0.16259766,0.20410156,1.0981445,0.8611999,0.17889276,0.20410156,1.0981445,-11,-3,-1,-10,11,7,15,1
32.88558506965637,false,-0.17675781,0.21142578,1.0097656,0.86134535,0.17908074,0.21142578,1.0097656,-10,1,5,31,14,-4,-25,-12
32.88798904418945,false,-0.21582031,0.26513672,0.9448242,0.8616092,0.1807939,0.26513672,0.9448242,7,-3,-3,4,21,0,1,15
32.917309045791626,false,-0.26757812,0.28710938,0.8417969,0.86194456,0.18243536,0.28710938,0.8417969,-9,-3,-17,-5,17,1,-3,0
32.94608998298645,false,-0.28759766,0.35009766,0.7832031,0.8621416,0.18579534,0.35009766,0.7832031,17,10,3,-71,-61,4,6,3
32.9484840631485,false,-0.29833984,0.3798828,0.79833984,0.8626442,0.18958275,0.3798828,0.79833984,-1,-5,-25,-50,-78,-19,-30,-9
32.977007031440735,false,-0.33398438,0.36621094,0.86572266,0.86384135,0.19104242,0.36621094,0.86572266,-15,-3,7,8,17,6,25,-9
33.006296038627625,false,-0.3955078,0.3076172,1.0039062,0.8653135,0.18805324,0.3076172,1.0039062,6,0,7,-6,7,-2,-18,5
33.00832498073578,false,-0.34765625,0.20019531,0.8696289,0.8658594,0.18555002,0.20019531,0.8696289,3,-6,1,15,22,0,-10,-7
33.03689396381378,false,-0.16894531,0.07910156,0.7807617,0.86476547,0.18890804,0.07910156,0.7807617,-18,-1,8,19,0,8,-1,0
33.065824031829834,false,-0.22363281,0.23486328,0.98876953,0.86151123,0.20007324,0.23486328,0.98876953,-13,0,-1,29,20,-2,5,5
33.096315026283264,false,-0.3647461,0.38183594,1.03125,0.857419,0.21282887,0.38183594,1.03125,14,1,-1,9,-4,4,35,5
33.098551988601685,false,-0.3173828,0.5317383,1.1030273,0.85483485,0.22071281,0.5317383,1.1030273,20,2,-3,0,4,-8,-29,1
33.125815987586975,false,-0.23291016,0.51123047,1.0712891,0.8545416,0.22126523,0.51123047,1.0712891,5,-3,-3,-8,-12,0,11,-3
33.128121972084045,false,-0.20214844,0.31933594,1.0771484,0.8556115,0.21698523,0.31933594,1.0771484,0,-2,2,8,6,-2,-2,7
33.1572140455246,false,-0.18652344,0.26123047,1.0131836,0.85639185,0.2146015,0.26123047,1.0131836,-15,-3,2,11,8,0,-10,0
33.18611407279968,false,-0.18066406,0.26904297,0.97265625,0.856897,0.2147278,0.26904297,0.97265625,-12,-4,-4,11,-2,0,-4,-14
33.18810498714447,false,-0.14257812,0.23242188,0.90283203,0.85762125,0.21387124,0.23242188,0.90283203,2,-4,-1,-28,-10,0,0,10
33.21684002876282,false,-0.15625,0.29492188,0.97802734,0.85815257,0.2122188,0.29492188,0.97802734,-26,-5,-2,1,-9,-5,5,3
33.24585807323456,false,-0.21826172,0.2763672,1.0751953,0.85878295,0.21014853,0.2763672,1.0751953,21,5,0,-2,11,2,6,-1
33.24804699420929,false,-0.28222656,0.32958984,1.1728516,0.8589582,0.21045178,0.32958984,1.1728516,2,-2,-5,1,6,1,-2,0
33.276756048202515,false,-0.30566406,0.43798828,1.1430664,0.8589824,0.21375373,0.43798828,1.1430664,7,-1,-2,13,13,-1,1,0
33.3061980009079,false,-0.2446289,0.4921875,1.112793,0.85950977,0.21637283,0.4921875,1.112793,1,0,3,-12,3,2,-3,-1
33.308544993400574,false,-0.21875,0.46679688,1.0893555,0.8605002,0.21906194,0.46679688,1.0893555,0,0,-8,-1,6,0,1,-1
33.337117075920105,false,-0.1772461,0.40625,1.0136719,0.8619017,0.22083141,0.40625,1.0136719,-2,0,-2,-8,0,-1,0,-1
33.36618900299072,false,-0.16552734,0.38427734,0.96435547,0.8627301,0.22448683,0.38427734,0.96435547,-5,-1,2,-37,-14,-1,-2,0
33.36878502368927,false,-0.13671875,0.4165039,0.9169922,0.86275774,0.22956009,0.4165039,0.9169922,1,3,8,-3,-10,-5,-5,-2
33.397220969200134,false,-0.14013672,0.44335938,0.92089844,0.8623962,0.23487157,0.44335938,0.92089844,-3,-1,-5,20,-15,-8,-1,-2
33.426177978515625,false,-0.16015625,0.4921875,0.94628906,0.8615906,0.24103297,0.4921875,0.94628906,-2,-3,-6,7,-2,0,-2,-3
33.428832054138184,false,-0.1538086,0.4897461,0.9555664,0.86102754,0.24676646,0.4897461,0.9555664,4,-2,3,2,6,-1,0,0
33.45757305622101,false,-0.109375,0.47558594,0.9790039,0.8609884,0.25128946,0.47558594,0.9790039,-10,2,1,27,18,2,2,0
33.48592400550842,false,-0.08935547,0.46923828,1.0249023,0.86106473,0.25568867,0.46923828,1.0249023,1,-1,-2,-10,4,-1,0,1
33.48808300495148,false,-0.09033203,0.5722656,1.0615234,0.8608502,0.26129466,0.5722656,1.0615234,-1,2,11,5,6,0,0,-3
33.51687800884247,false,-0.056640625,0.65966797,1.0976562,0.8620131,0.26477468,0.65966797,1.0976562,-4,-1,-5,-9,-12,0,-2,0
33.545786023139954,false,-0.045410156,0.73828125,1.2128906,0.8647553,0.26428503,0.73828125,1.2128906,-6,-2,-3,-10,-3,-1,2,0
33.54826807975769,false,-0.10253906,0.7573242,1.2856445,0.86841214,0.26135373,0.7573242,1.2856445,30,0,-13,-7,-3,-2,0,1
33.60657298564911,false,-0.08886719,0.70996094,1.300293,0.8724233,0.25671,0.70996094,1.300293,-6,-1,3,-20,-14,-1,-2,-3
33.60820198059082,false,-0.020507812,0.77978516,1.2148438,0.8754566,0.25397578,0.77978516,1.2148438,6,-4,-8,11,-9,-2,-3,0
33.63654696941376,false,0.023925781,0.9111328,1.1416016,0.87844825,0.25183973,0.9111328,1.1416016,-12,-1,21,16,-3,3,-4,-3
33.63788306713104,false,0.079589844,0.9248047,1.1147461,0.88260275,0.24610335,0.9248047,1.1147461,-5,-2,-8,5,-1,1,-1,0
33.66652297973633,false,0.119628906,0.86035156,1.1010742,0.8869832,0.23639457,0.86035156,1.1010742,-28,-6,-4,-1,-16,3,3,2
33.6964830160141,false,0.055664062,0.79833984,1.0224609,0.8906272,0.22357234,0.79833984,1.0224609,-12,-9,-14,-13,-32,-5,-1,3
33.69982206821442,false,0.09277344,0.7290039,0.87841797,0.8935058,0.2101469,0.7290039,0.87841797,-18,3,7,47,3,-8,3,-7
33.726354002952576,false,0.30078125,0.70458984,0.63134766,0.8945388,0.1940324,0.70458984,0.63134766,-8,-1,4,34,18,1,-3,-2
33.72857904434204,false,0.33154297,0.41992188,0.7675781,0.8965022,0.17639512,0.41992188,0.7675781,-8,0,-3,12,-38,0,-3,-6
33.75746703147888,false,0.28466797,0.3388672,0.5283203,0.89673495,0.1582653,0.3388672,0.5283203,12,-1,-1,-12,-37,10,1,-4
33.78624701499939,false,0.31396484,0.35742188,0.43945312,0.8958378,0.14288725,0.35742188,0.43945312,-5,2,2,6,22,-2,-3,6
33.78896903991699,false,0.3540039,0.27392578,0.39453125,0.8951316,0.12542585,0.27392578,0.39453125,-5,1,13,-10,11,-4,-2,-18
33.817137002944946,false,0.38916016,0.15673828,0.3564453,0.8944243,0.1060809,0.15673828,0.3564453,2,2,5,16,-4,3,2,10
33.846137046813965,false,0.42822266,0.11425781,0.3383789,0.8932951,0.08770601,0.11425781,0.3383789,-6,4,-1,-10,5,-7,-1,6
33.84850299358368,false,0.4921875,0.019042969,0.3413086,0.892519,0.06817642,0.019042969,0.3413086,-4,-4,-1,-15,-16,-1,2,-17
33.87739896774292,false,0.5317383,-0.088378906,0.35839844,0.8917934,0.0496831,-0.088378906,0.35839844,4,2,-4,-5,10,-2,0,9
33.90701401233673,false,0.5722656,-0.16601562,0.3305664,0.89066297,0.031676427,-0.16601562,0.3305664,1,1,0,-11,-7,5,3,12
