,time,gesture,ax,ay,az,qw,qx,qy,qz,e0,e1,e2,e3,e4,e5,e6,e7
0,39.483084917068474,0,0.2563891257363719,0.3946826099159626,0.5312242436935941,0.36006719919204766,0.23139393922795215,0.240300050752629,0.4116658068836707,0.49019607843137253,0.4980392156862745,0.49019607843137253,0.5098039215686274,0.5058823529411764,0.5019607843137255,0.5098039215686274,0.5098039215686274
1,39.484669923782356,0,0.2608202894159112,0.40179308054167234,0.5308120393780758,0.35996997481555965,0.2315232026732026,0.2492240041396723,0.4111484723370202,0.5058823529411764,0.5098039215686274,0.5098039215686274,0.5098039215686274,0.49411764705882355,0.49411764705882355,0.5098039215686274,0.4980392156862745
2,39.48529398441315,0,0.2652514488745107,0.40869744900962296,0.5279266344950858,0.3599536745155295,0.23163633003984016,0.2578892902533903,0.40752716229525626,0.4823529411764706,0.4823529411764706,0.49411764705882355,0.5058823529411764,0.4980392156862745,0.4980392156862745,0.5058823529411764,0.5019607843137255
3,39.4869669675827,0,0.2628812898888042,0.40498763971653606,0.5326669398036794,0.35995339639861323,0.2316362399829339,0.25323331641579033,0.41347645395835503,0.5058823529411764,0.5176470588235295,0.4980392156862745,0.4980392156862745,0.5019607843137255,0.5098039215686274,0.4823529411764706,0.49411764705882355
4,39.488321900367744,0,0.26432399655123895,0.401896130565317,0.5294723848497556,0.35998165572604607,0.23155406570471887,0.2493533364519687,0.4094671469797021,0.4666666666666667,0.5019607843137255,0.49019607843137253,0.49411764705882355,0.5019607843137255,0.49411764705882355,0.4823529411764706,0.4823529411764706
5,39.48957598209381,0,0.26205688969964697,0.39849547134316404,0.5327699940482639,0.3600035369055307,0.2314589417731325,0.24508535955125788,0.4136057915681165,0.5137254901960784,0.49411764705882355,0.5058823529411764,0.5019607843137255,0.5058823529411764,0.5058823529411764,0.5098039215686274,0.5019607843137255
6,39.49041593074799,0,0.2611294373763753,0.40241138068354027,0.5307089935753709,0.3599510522703184,0.23153846731881095,0.24999999801345058,0.41101914532218886,0.5019607843137255,0.5019607843137255,0.48627450980392156,0.5058823529411764,0.4980392156862745,0.5058823529411764,0.4980392156862745,0.49019607843137253
7,39.49153900146485,0,0.2611294373763753,0.4039571352591497,0.530502885086202,0.35991692600031694,0.2316025401588709,0.25193998799536144,0.4107604701026659,0.5176470588235295,0.5058823529411764,0.4980392156862745,0.4549019607843137,0.48627450980392156,0.49411764705882355,0.5098039215686274,0.5137254901960784
8,39.50692999362945,0,0.25875928050113867,0.39993817589512887,0.5346249008052772,0.35986756422076516,0.2316345898225636,0.24689601722087234,0.415933781135649,0.48627450980392156,0.4980392156862745,0.5176470588235295,0.5294117647058824,0.5215686274509804,0.5019607843137255,0.5058823529411764,0.5019607843137255
9,39.53719198703765,0,0.26061418514768214,0.3982893712958747,0.53246084397733,0.35971491776468173,0.2318315734125769,0.24482669492666514,0.4132177946312274,0.4823529411764706,0.47843137254901963,0.49019607843137253,0.5176470588235295,0.5098039215686274,0.5019607843137255,0.5098039215686274,0.49411764705882355
10,39.538826942443855,0,0.2618507896523577,0.4041632353064391,0.5317394938118174,0.3595479416655754,0.2321208203030371,0.2521986526199542,0.4123124684451526,0.5098039215686274,0.5019607843137255,0.49411764705882355,0.4980392156862745,0.5058823529411764,0.5019607843137255,0.49019607843137253,0.5098039215686274
11,39.56771194934846,0,0.2619538396760024,0.4068425443630795,0.5361706574913566,0.3593186408898832,0.23255633285290003,0.2555613033345903,0.4178737737662923,0.4980392156862745,0.49411764705882355,0.5647058823529412,0.4745098039215686,0.4823529411764706,0.49411764705882355,0.49019607843137253,0.49411764705882355
12,39.59687399864197,0,0.2610263873527306,0.3992168215086766,0.5274113843768625,0.35904612604285663,0.23304211304884231,0.24599068573733257,0.4068805007337744,0.5137254901960784,0.5333333333333333,0.5490196078431373,0.5019607843137255,0.49411764705882355,0.5058823529411764,0.5019607843137255,0.5058823529411764
13,39.598595976829536,0,0.2599958850058142,0.40539983981111466,0.5237015708628359,0.3588198580659189,0.2335594740828183,0.25375064566497585,0.40222452159870936,0.5019607843137255,0.4745098039215686,0.4470588235294118,0.4823529411764706,0.49019607843137253,0.4745098039215686,0.4980392156862745,0.5019607843137255
14,39.62712800502778,0,0.2625721419283401,0.4135408127837408,0.5231863186341428,0.3587341291886397,0.23388113351332865,0.2639679248237155,0.4015778573884949,0.49019607843137253,0.5019607843137255,0.4745098039215686,0.5058823529411764,0.5019607843137255,0.49411764705882355,0.5019607843137255,0.48627450980392156
15,39.65700900554657,0,0.261747739628713,0.4127164104841137,0.5271022300849888,0.3587535867778535,0.23399542897101483,0.2629332636766119,0.4064924984994202,0.49019607843137253,0.4745098039215686,0.48627450980392156,0.47843137254901963,0.5098039215686274,0.5098039215686274,0.5098039215686274,0.49019607843137253
16,39.65869700908661,0,0.2610263873527306,0.4110676058848596,0.5339035485292949,0.35878216660192325,0.23401031219913793,0.2608639413824047,0.41502845230084173,0.5137254901960784,0.5019607843137255,0.4823529411764706,0.48627450980392156,0.5019607843137255,0.4823529411764706,0.4666666666666667,0.49411764705882355
17,39.71777296066284,0,0.2660758511741378,0.41539571743028425,0.5318425480564019,0.35878232552587547,0.23401036252505614,0.26629591174251555,0.41244180605491415,0.5137254901960784,0.5019607843137255,0.5098039215686274,0.5137254901960784,0.48627450980392156,0.4980392156862745,0.5058823529411764,0.47843137254901963
18,39.7198669910431,0,0.2659728011504931,0.4142621650597232,0.5326669398036794,0.3588337639117359,0.23380120006283958,0.26487325365852277,0.41347645395835503,0.5176470588235295,0.5019607843137255,0.5019607843137255,0.5176470588235295,0.48627450980392156,0.49019607843137253,0.49019607843137253,0.5215686274509804
19,39.747143983840935,0,0.26298434413338856,0.4098310034906539,0.529884587054804,0.35886872718121887,0.23325242770971225,0.2593119509861156,0.40998447887762013,0.49019607843137253,0.5058823529411764,0.48627450980392156,0.49411764705882355,0.5019607843137255,0.5019607843137255,0.5058823529411764,0.4823529411764706
20,39.776667952537544,0,0.2607172351713268,0.4050906897401807,0.5310181352044253,0.35894805672068963,0.23284775435277277,0.2533626487280867,0.41140713166414783,0.5098039215686274,0.49411764705882355,0.47843137254901963,0.5176470588235295,0.49411764705882355,0.5254901960784314,0.49411764705882355,0.47843137254901963
21,39.77873396873474,0,0.2609233373290859,0.4001442759424182,0.5315333916540582,0.3590127122819076,0.23237892074759958,0.24715468184546507,0.4120538011718274,0.4823529411764706,0.4980392156862745,0.5019607843137255,0.5098039215686274,0.5019607843137255,0.5176470588235295,0.5058823529411764,0.49019607843137253
22,39.807089924812324,0,0.26051113512403745,0.3983924213195194,0.5301937434571476,0.35906536908473496,0.23197612799076106,0.24495602723896148,0.41037248376070695,0.5098039215686274,0.4980392156862745,0.48627450980392156,0.49411764705882355,0.49411764705882355,0.4823529411764706,0.5019607843137255,0.49019607843137253
23,39.83721697330475,0,0.25968673493488026,0.40024732596606283,0.5363767554281761,0.3591141719817215,0.23158821846204564,0.24728401415776147,0.4181324357421526,0.5058823529411764,0.5137254901960784,0.5019607843137255,0.49411764705882355,0.4980392156862745,0.6078431372549019,0.5882352941176471,0.4745098039215686
24,39.83890700340271,0,0.26391179434619044,0.4064303442685009,0.5319455938591067,0.35912462123157834,0.2313438331545576,0.25504397408540475,0.4125711330697454,0.5058823529411764,0.4980392156862745,0.5137254901960784,0.5019607843137255,0.5058823529411764,0.4666666666666667,0.4980392156862745,0.5176470588235295
25,39.867210984230034,0,0.2628812898888042,0.40570898988204857,0.5338004942847103,0.3591689875015662,0.23095448536407479,0.254138642601865,0.4148991146910804,0.4980392156862745,0.49019607843137253,0.4823529411764706,0.49019607843137253,0.49411764705882355,0.4666666666666667,0.4627450980392157,0.5098039215686274
26,39.89699292182922,0,0.2621599397232916,0.3982893712958747,0.5310181352044253,0.35922297926559194,0.2304227761459481,0.24482669492666514,0.41140713166414783,0.4666666666666667,0.4823529411764706,0.5058823529411764,0.48627450980392156,0.5058823529411764,0.4549019607843137,0.4588235294117647,0.49411764705882355
27,39.898587942123406,0,0.2579348760910417,0.3967436167202652,0.5348310008525665,0.35926857984494176,0.22992067710884795,0.24288670494475428,0.4161924457602418,0.5098039215686274,0.49411764705882355,0.5019607843137255,0.48627450980392156,0.49411764705882355,0.5058823529411764,0.49411764705882355,0.5058823529411764
28,39.92727291584015,0,0.2599958850058142,0.3936521075690462,0.5385408122561234,0.35928902806012425,0.229307715371429,0.23900672498093264,0.42084842224657426,0.5019607843137255,0.5058823529411764,0.5019607843137255,0.4980392156862745,0.49019607843137253,0.4745098039215686,0.49019607843137253,0.5019607843137255
29,39.95687699317932,0,0.2577287781542223,0.3905605984178272,0.5366859076095798,0.35928640581491295,0.22875721074722274,0.23512674501711098,0.4185204353277743,0.5294117647058824,0.5294117647058824,0.5411764705882353,0.5019607843137255,0.5137254901960784,0.5137254901960784,0.5137254901960784,0.5019607843137255
30,39.9587779045105,0,0.25814098035927074,0.3873660392429635,0.5378194620906108,0.3592499062805588,0.22823858097036173,0.23111743274099295,0.4199430960604995,0.48627450980392156,0.4980392156862745,0.49019607843137253,0.5294117647058824,0.5098039215686274,0.4823529411764706,0.48627450980392156,0.5058823529411764
31,39.98722898960113,0,0.2520610120804774,0.3882934936767051,0.5389530165716417,0.35919068062104076,0.22791694272971166,0.23228142884912548,0.4213657567932249,0.5254901960784314,0.4980392156862745,0.4392156862745098,0.47058823529411764,0.48627450980392156,0.48627450980392156,0.49411764705882355,0.49019607843137253
32,40.0169529914856,0,0.2535037166324422,0.37376340235435157,0.5435902760775305,0.3590282868292228,0.2277065539043307,0.21404552513814976,0.4271857214414923,0.5019607843137255,0.5019607843137255,0.5294117647058824,0.49019607843137253,0.5098039215686274,0.5098039215686274,0.4980392156862745,0.5058823529411764
33,40.018805980682366,0,0.2526793143328151,0.37211459775509736,0.5400865710526727,0.358516480187376,0.2284842932928506,0.21197620284394253,0.4227884175259502,0.5019607843137255,0.49411764705882355,0.5098039215686274,0.5098039215686274,0.5137254901960784,0.5137254901960784,0.49019607843137253,0.48627450980392156
34,40.04714596271515,0,0.24577494375439465,0.3904575483941825,0.5268961342586393,0.35798238181250136,0.22977747603299,0.2349974127048146,0.40623383917229255,0.5019607843137255,0.5019607843137255,0.5098039215686274,0.48627450980392156,0.5137254901960784,0.5137254901960784,0.5137254901960784,0.5019607843137255
35,40.076894998550415,0,0.24608409593579844,0.3911789006701649,0.5163850023003066,0.35762632329253835,0.23047253523538042,0.23590274153962182,0.3930419062358058,0.49411764705882355,0.4980392156862745,0.4980392156862745,0.4745098039215686,0.5137254901960784,0.5215686274509804,0.5137254901960784,0.5019607843137255
36,40.078657984733574,0,0.2416529343667291,0.4038540852355051,0.5159727979847882,0.3574481774883252,0.23076343758367596,0.25181065568306504,0.3925245716891553,0.5137254901960784,0.5058823529411764,0.5254901960784314,0.4980392156862745,0.4666666666666667,0.4627450980392157,0.49019607843137253,0.5098039215686274
37,40.108316898345954,0,0.23577906613522498,0.39705276679119916,0.5208161659798459,0.35768220095413017,0.2303241611848785,0.24327470188164343,0.3986032115569456,0.47843137254901963,0.4823529411764706,0.4980392156862745,0.4745098039215686,0.4588235294117647,0.4745098039215686,0.49411764705882355,0.5019607843137255
38,40.137077927589424,0,0.22753504313895417,0.37881286617575866,0.524835123233397,0.35815905227269157,0.22938908973241795,0.22038282433306774,0.4036471796827021,0.5019607843137255,0.49019607843137253,0.4745098039215686,0.5058823529411764,0.5215686274509804,0.5098039215686274,0.4980392156862745,0.4980392156862745
39,40.13856196403504,0,0.23299670916540982,0.3883965437003497,0.5315333916540582,0.35867624378778523,0.2289363657185323,0.23241076116142184,0.4120538011718274,0.5019607843137255,0.4980392156862745,0.49411764705882355,0.5058823529411764,0.5019607843137255,0.5058823529411764,0.48627450980392156,0.4980392156862745
40,40.16758394241333,0,0.2322753568894274,0.4119950582081313,0.5364798054518207,0.3594487466320803,0.2290484256459576,0.2620279348418047,0.418261768054449,0.48627450980392156,0.5019607843137255,0.4823529411764706,0.5098039215686274,0.49019607843137253,0.4980392156862745,0.48627450980392156,0.5019607843137255
41,40.197098970413215,0,0.2379431229631723,0.42487634493123067,0.5414262192495832,0.3605816519176984,0.22908114808771457,0.2781945162585733,0.42446973493707063,0.48627450980392156,0.49411764705882355,0.4745098039215686,0.49411764705882355,0.4980392156862745,0.49019607843137253,0.5098039215686274,0.49411764705882355
42,40.19885492324829,0,0.23650041630073756,0.42528854502580926,0.5426628216437889,0.3620687245282484,0.2288223960549481,0.2787118455077588,0.42602172533335975,0.5098039215686274,0.5058823529411764,0.4980392156862745,0.5098039215686274,0.49411764705882355,0.49411764705882355,0.5058823529411764,0.49411764705882355
43,40.2276599407196,0,0.23124485454251098,0.4206512812989807,0.5425597673992044,0.3637832490991799,0.22836998724023427,0.2728918755620263,0.4258923877235983,0.4980392156862745,0.5019607843137255,0.47058823529411764,0.5058823529411764,0.4980392156862745,0.49411764705882355,0.5019607843137255,0.5058823529411764
44,40.25719690322876,0,0.23351196139410296,0.41261336046046904,0.5310181352044253,0.36573895665996287,0.22791717581817486,0.2628039313643155,0.41140713166414783,0.4980392156862745,0.5019607843137255,0.5215686274509804,0.5176470588235295,0.5019607843137255,0.5058823529411764,0.5019607843137255,0.5058823529411764
45,40.25946295261382,0,0.2459810480226237,0.41034625360887717,0.5197856594119897,0.3678936740911496,0.22777302119860376,0.2599586125475975,0.39730988048778415,0.5019607843137255,0.5058823529411764,0.5019607843137255,0.5098039215686274,0.5176470588235295,0.5019607843137255,0.48627450980392156,0.4980392156862745
46,40.28716993331909,0,0.2527823643564598,0.4207543355435651,0.5182399048363803,0.3701340250452442,0.22788416466457143,0.27302121317178774,0.3953698905058733,0.5019607843137255,0.5019607843137255,0.5137254901960784,0.5019607843137255,0.4666666666666667,0.4980392156862745,0.5058823529411764,0.5098039215686274
47,40.31701898574829,0,0.24505359358888212,0.43775763165432996,0.5217436119717079,0.37244793130187964,0.22812727593170934,0.29436109767534174,0.399767197070148,0.4823529411764706,0.49411764705882355,0.5176470588235295,0.5098039215686274,0.5019607843137255,0.49019607843137253,0.5137254901960784,0.5098039215686274
48,40.318865895271294,0,0.2428895367609348,0.4481657093680783,0.5219497204608768,0.37515231370905855,0.2275465598641908,0.3074236930020669,0.4000258722896709,0.4980392156862745,0.49019607843137253,0.4980392156862745,0.5058823529411764,0.5137254901960784,0.5098039215686274,0.5019607843137255,0.4980392156862745
49,40.347051978111274,0,0.2576257281305776,0.43940643625358417,0.5198887094356345,0.3781185074350836,0.2264771711848,0.29643041996954894,0.3974392128000805,0.5137254901960784,0.5058823529411764,0.49019607843137253,0.4980392156862745,0.5019607843137255,0.5098039215686274,0.49411764705882355,0.4823529411764706
50,40.40686595439911,0,0.2823577971193901,0.43373866806936934,0.5204039616643276,0.38116301888475046,0.22536307454892424,0.2893171216033876,0.39808587701029496,0.5058823529411764,0.49411764705882355,0.4980392156862745,0.49411764705882355,0.48627450980392156,0.5019607843137255,0.4980392156862745,0.5019607843137255
51,40.4087849855423,0,0.29585738398435735,0.42992580875263775,0.5159727979847882,0.3841302323728022,0.22464979471541466,0.2845318154534912,0.3925245716891553,0.5019607843137255,0.49019607843137253,0.49411764705882355,0.49019607843137253,0.5058823529411764,0.49019607843137253,0.5058823529411764,0.5019607843137255
52,40.41096198558808,0,0.2986397409541725,0.42549464507309853,0.5163850023003066,0.38703034287077204,0.22397241580270597,0.2789705101323515,0.3930419062358058,0.49411764705882355,0.49411764705882355,0.4980392156862745,0.49019607843137253,0.5058823529411764,0.5019607843137255,0.5058823529411764,0.48627450980392156
53,40.437189936637886,0,0.29626958618940585,0.4279678540824497,0.5244229168074086,0.38976166288784797,0.22319619943539457,0.2820744962223949,0.403129842487319,0.48627450980392156,0.5019607843137255,0.49411764705882355,0.49019607843137253,0.5058823529411764,0.5058823529411764,0.48627450980392156,0.49411764705882355
54,40.43930995464325,0,0.3011129499635237,0.41642622188767053,0.5271022300849888,0.39246713127536687,0.2221952063275635,0.26758924016294444,0.4064924984994202,0.5176470588235295,0.5176470588235295,0.49411764705882355,0.49411764705882355,0.49019607843137253,0.49411764705882355,0.5058823529411764,0.5058823529411764
55,40.467062950134284,0,0.3114179776536272,0.4123042082790652,0.5343157444029336,0.3949651880128759,0.22140119312633882,0.2624159317786938,0.4155457762525623,0.49411764705882355,0.49411764705882355,0.48627450980392156,0.5098039215686274,0.5372549019607843,0.4980392156862745,0.48627450980392156,0.5058823529411764
56,40.497164964675896,0,0.319971151776067,0.40612119208709707,0.5293693306051711,0.3972570991945276,0.22099617543416958,0.2546559744997831,0.40933780936994063,0.49411764705882355,0.5019607843137255,0.4823529411764706,0.5019607843137255,0.5058823529411764,0.4980392156862745,0.5058823529411764,0.49411764705882355
57,40.49930989742279,0,0.32223825757242397,0.4001442759424182,0.5215375140348886,0.39935068387877,0.2208201830495087,0.24715468184546507,0.3995085350942877,0.49019607843137253,0.49411764705882355,0.5137254901960784,0.5019607843137255,0.49411764705882355,0.5019607843137255,0.5019607843137255,0.4980392156862745
58,40.527066946029656,0,0.3202803029022359,0.3946826099159626,0.5193734572069413,0.40122798630773737,0.22082062009037726,0.240300050752629,0.39679254858986607,0.4980392156862745,0.47843137254901963,0.48627450980392156,0.5019607843137255,0.4823529411764706,0.5058823529411764,0.4980392156862745,0.49411764705882355
59,40.55751597881317,0,0.3201772528785912,0.3934460075217569,0.522877166452739,0.40284593809038505,0.221241238817187,0.23874806035633986,0.40118985780287325,0.5098039215686274,0.5098039215686274,0.5176470588235295,0.49411764705882355,0.5215686274509804,0.4980392156862745,0.5019607843137255,0.5019607843137255
60,40.55965292453765,0,0.32213520754877933,0.40467848542466234,0.5166941502607707,0.4042281924082648,0.22201542890410786,0.2528453141814361,0.3934299005239625,0.4980392156862745,0.5058823529411764,0.49019607843137253,0.5137254901960784,0.4745098039215686,0.49019607843137253,0.49411764705882355,0.5137254901960784
61,40.58718693256378,0,0.3202803029022359,0.41003710353794315,0.5180338068995608,0.4055104888576788,0.222857257025083,0.2595706156107083,0.395111228530013,0.5019607843137255,0.4980392156862745,0.5137254901960784,0.5019607843137255,0.5058823529411764,0.4980392156862745,0.4980392156862745,0.49019607843137253
62,40.61703300476074,0,0.31275763218194746,0.40333883511728186,0.5201978616170382,0.4067758387163238,0.22335942757796162,0.25116399412158313,0.3978272123857022,0.49019607843137253,0.49411764705882355,0.49411764705882355,0.48627450980392156,0.5058823529411764,0.5058823529411764,0.4980392156862745,0.49019607843137253
63,40.619351983070366,0,0.3077081683605404,0.3866446890774509,0.5261747756512473,0.4079168173387133,0.2236650197969051,0.23021210655491825,0.40532850239128765,0.49019607843137253,0.48627450980392156,0.49019607843137253,0.49411764705882355,0.49019607843137253,0.49019607843137253,0.4980392156862745,0.5058823529411764
64,40.647125959396355,0,0.3069868160845579,0.3865416369433364,0.5318425480564019,0.40878336872918497,0.22439477474679223,0.23008277159388935,0.41244180605491415,0.5058823529411764,0.48627450980392156,0.47058823529411764,0.48627450980392156,0.48627450980392156,0.49411764705882355,0.49019607843137253,0.4980392156862745
65,40.67705500125885,0,0.3083264685024082,0.39169415289885806,0.5278235802505014,0.40935857543302745,0.2258967173418026,0.2365494057498363,0.4073978246854949,0.49019607843137253,0.49411764705882355,0.4627450980392157,0.48627450980392156,0.49411764705882355,0.5137254901960784,0.5019607843137255,0.5019607843137255
66,40.67927598953247,0,0.3042044591147427,0.40766694666270653,0.5240107209337699,0.4096172771398757,0.22822475723525332,0.2565959644816939,0.4026125185355985,0.5137254901960784,0.5098039215686274,0.5019607843137255,0.5098039215686274,0.5019607843137255,0.5019607843137255,0.5058823529411764,0.4980392156862745
67,40.70698499679565,0,0.29781534076501537,0.4131286126891622,0.5317394938118174,0.4097488926596186,0.23071504788896505,0.26345059557453004,0.4123124684451526,0.4980392156862745,0.5058823529411764,0.5215686274509804,0.49019607843137253,0.5137254901960784,0.49411764705882355,0.49019607843137253,0.49411764705882355
68,40.73731791973114,0,0.2918384225098666,0.41003710353794315,0.533491352655656,0.4098337845374162,0.23288251102111784,0.2595706156107083,0.41451112834912135,0.5019607843137255,0.5098039215686274,0.5294117647058824,0.4980392156862745,0.4823529411764706,0.5019607843137255,0.5058823529411764,0.4980392156862745
69,40.73912000656128,0,0.28998351786332316,0.41642622188767053,0.5338004942847103,0.409738562602726,0.2351464250998578,0.26758924016294444,0.4148991146910804,0.5019607843137255,0.4980392156862745,0.5098039215686274,0.5058823529411764,0.49411764705882355,0.5058823529411764,0.5019607843137255,0.4980392156862745
70,40.767181992530816,0,0.28452185394733737,0.4207543355435651,0.5338004942847103,0.4094388055415606,0.23763370944214057,0.27302121317178774,0.4148991146910804,0.5019607843137255,0.48627450980392156,0.5176470588235295,0.5176470588235295,0.49411764705882355,0.4980392156862745,0.48627450980392156,0.5019607843137255
71,40.79796290397643,0,0.28009069026779815,0.41261336046046904,0.5330791462296678,0.40911306441421136,0.2397670198169666,0.2628039313643155,0.41399379115373813,0.49019607843137253,0.48627450980392156,0.48627450980392156,0.49019607843137253,0.4980392156862745,0.5019607843137255,0.4980392156862745,0.5176470588235295
72,40.799901008605964,0,0.28194559491434157,0.4162201176194415,0.5361706574913566,0.4087039146992851,0.24170551326499426,0.2673305702408866,0.4178737737662923,0.49019607843137253,0.5058823529411764,0.49019607843137253,0.49019607843137253,0.5019607843137255,0.49411764705882355,0.5019607843137255,0.49411764705882355
73,40.82708692550659,0,0.27730833540845284,0.4296166586817039,0.5358615031994829,0.4081672708924427,0.2436818729933649,0.2841438185166021,0.41748577153193817,0.49411764705882355,0.5137254901960784,0.49019607843137253,0.5137254901960784,0.4980392156862745,0.4823529411764706,0.49019607843137253,0.49411764705882355
74,40.85705697536469,0,0.27267106957115445,0.43456307247946635,0.5340066027738792,0.4076269532935722,0.24539341509146034,0.29035178539922374,0.41515778991060326,0.5098039215686274,0.5058823529411764,0.49019607843137253,0.49019607843137253,0.4980392156862745,0.5137254901960784,0.5058823529411764,0.5058823529411764
75,40.85938692092896,0,0.2675185557261026,0.42838005417702835,0.543384180251181,0.40726213011764556,0.2463495413188542,0.2825918254715804,0.42692706211436465,0.4980392156862745,0.49411764705882355,0.4980392156862745,0.5058823529411764,0.5058823529411764,0.5098039215686274,0.5058823529411764,0.49019607843137253
76,40.887337923049934,0,0.2696826125540499,0.4233305903556211,0.5456512807713633,0.40704489166992497,0.2466059068436052,0.2762545262766624,0.4297723729848851,0.5019607843137255,0.49411764705882355,0.5098039215686274,0.49019607843137253,0.5019607843137255,0.4980392156862745,0.4980392156862745,0.4980392156862745
77,40.91720700263978,0,0.2686521080966636,0.4229183902610425,0.5516282032474518,0.406776975022582,0.2468345189488379,0.27573719702747684,0.43727367358540065,0.5098039215686274,0.5058823529411764,0.4588235294117647,0.5058823529411764,0.5019607843137255,0.4980392156862745,0.5019607843137255,0.49019607843137253
78,40.91919195652007,0,0.26648805337918624,0.4233305903556211,0.5560593669269911,0.4064850608584574,0.2469797224664935,0.2762545262766624,0.4428349789065403,0.49019607843137253,0.49411764705882355,0.5019607843137255,0.5019607843137255,0.5098039215686274,0.5058823529411764,0.5058823529411764,0.5098039215686274
79,40.94705700874329,0,0.2658697511268484,0.4237427904501997,0.5557502041932377,0.4062059215313569,0.24702680103859875,0.27677185552584793,0.442446966077256,0.4980392156862745,0.4745098039215686,0.49019607843137253,0.49411764705882355,0.49019607843137253,0.5019607843137255,0.5019607843137255,0.4980392156862745
80,40.977168917655945,0,0.27102226497190024,0.4158079217458026,0.5533800620912903,0.4059001253600082,0.24694642789850862,0.26681324628916614,0.43947233348936926,0.49019607843137253,0.5137254901960784,0.5137254901960784,0.5058823529411764,0.49411764705882355,0.49019607843137253,0.5058823529411764,0.5098039215686274
81,40.97936797142029,0,0.2695795625304052,0.41910553094431097,0.5621393352057845,0.4056395695403843,0.24652546483646914,0.27095189087758054,0.45046560652188733,0.5058823529411764,0.49411764705882355,0.5058823529411764,0.5019607843137255,0.4823529411764706,0.49019607843137253,0.4980392156862745,0.4823529411764706
82,41.00753498077393,0,0.2743198741704086,0.4284831042006729,0.5666735320252092,0.40539102307408126,0.2460061543353462,0.2827211577838768,0.45615622296546304,0.49019607843137253,0.49411764705882355,0.5019607843137255,0.4980392156862745,0.49411764705882355,0.5019607843137255,0.4980392156862745,0.5137254901960784
83,41.037909984588616,0,0.2748351263991017,0.4320898634701152,0.5683223366244633,0.4052094815947562,0.24512102208613049,0.2872477993091803,0.45822554525967024,0.4980392156862745,0.5019607843137255,0.4980392156862745,0.48627450980392156,0.5019607843137255,0.5137254901960784,0.49411764705882355,0.49411764705882355
84,41.04008293151856,0,0.27741138332162757,0.4119950582081313,0.556265454311461,0.40508980921002075,0.24387407297241717,0.2620279348418047,0.4430936276387379,0.49019607843137253,0.4980392156862745,0.5058823529411764,0.5058823529411764,0.48627450980392156,0.49019607843137253,0.4980392156862745,0.5098039215686274
85,41.06717193126679,0,0.28307914939537254,0.40539983981111466,0.5467848352523942,0.40484079126932626,0.2427777519805944,0.25375064566497585,0.4311950337176103,0.5019607843137255,0.4980392156862745,0.5019607843137255,0.5019607843137255,0.49411764705882355,0.5019607843137255,0.5058823529411764,0.5058823529411764
86,41.09706497192383,0,0.2868920087121041,0.4118920081844866,0.5437963761248198,0.40441190849700237,0.24204756528730378,0.2618986025295083,0.42744438606608504,0.4980392156862745,0.4980392156862745,0.5058823529411764,0.49019607843137253,0.49019607843137253,0.4980392156862745,0.49411764705882355,0.48627450980392156
87,41.099232912063606,0,0.2848310040182713,0.4282770041533836,0.5380255600274303,0.40390417295706427,0.24145235535534504,0.282462493159284,0.4202017580363598,0.5019607843137255,0.4980392156862745,0.4980392156862745,0.49019607843137253,0.5137254901960784,0.4980392156862745,0.49411764705882355,0.5019607843137255
88,41.12818491458893,0,0.2829760993717279,0.43301731790385684,0.5372011577278032,0.4035128492121092,0.24031961693987677,0.2884117954173129,0.4191670968892562,0.5098039215686274,0.4980392156862745,0.48627450980392156,0.48627450980392156,0.5098039215686274,0.5058823529411764,0.49411764705882355,0.5058823529411764
89,41.1572949886322,0,0.2851401540892053,0.4300288587762825,0.5297815370311594,0.40323247027818154,0.23857190375026174,0.2846611477657876,0.40985514656532374,0.49019607843137253,0.49411764705882355,0.5019607843137255,0.49019607843137253,0.47058823529411764,0.4980392156862745,0.5019607843137255,0.5058823529411764
90,41.159368991851814,0,0.29018961791061243,0.42116653141720395,0.5204039616643276,0.40292965128220387,0.23655228492210353,0.2735385371235082,0.39808587701029496,0.5019607843137255,0.49411764705882355,0.49411764705882355,0.4823529411764706,0.49411764705882355,0.49411764705882355,0.49411764705882355,0.5058823529411764
91,41.187320947647095,0,0.2942085793851032,0.4193116288811304,0.5128812846126295,0.4024867567147615,0.2348205859694047,0.27121055285344076,0.38864458642786853,0.4980392156862745,0.4980392156862745,0.5137254901960784,0.49019607843137253,0.5019607843137255,0.49019607843137253,0.5019607843137255,0.4980392156862745
92,41.217229008674614,0,0.2974031385599669,0.4194146789047751,0.5096867296587057,0.4019038236581098,0.23338148455382482,0.27133988516573715,0.3846352794492156,0.5137254901960784,0.5137254901960784,0.48627450980392156,0.4980392156862745,0.5137254901960784,0.5019607843137255,0.49411764705882355,0.49411764705882355
93,41.21961200237274,0,0.29492993166108566,0.4244641406157123,0.5082440272172105,0.4012241324018967,0.23212029055652977,0.2776771817119226,0.38282462442833365,0.4980392156862745,0.5098039215686274,0.5019607843137255,0.5058823529411764,0.49411764705882355,0.5019607843137255,0.5058823529411764,0.5058823529411764
94,41.24716794490814,0,0.2937963792905246,0.42528854502580926,0.5020610110252424,0.40055169867283374,0.23060237080685875,0.2787118455077588,0.3750646671494229,0.5019607843137255,0.5019607843137255,0.5098039215686274,0.4980392156862745,0.49411764705882355,0.5098039215686274,0.4980392156862745,0.48627450980392156
95,41.278328895568855,0,0.2960634861421165,0.4249793949548753,0.5008244022996271,0.3998522743592231,0.2288228807730023,0.2783238485708696,0.3735126688069361,0.49411764705882355,0.4980392156862745,0.49019607843137253,0.4980392156862745,0.5019607843137255,0.4980392156862745,0.5058823529411764,0.4980392156862745
96,41.27995598316193,0,0.29194147253351127,0.41910553094431097,0.5074196206966437,0.3989804175574807,0.22731965619144423,0.27095189087758054,0.38178995798376497,0.49019607843137253,0.47843137254901963,0.4823529411764706,0.49019607843137253,0.5019607843137255,0.48627450980392156,0.4980392156862745,0.4980392156862745
97,41.306984901428216,0,0.2864798086175255,0.41704452202953846,0.5169002524185299,0.3978962118682802,0.22660805565436284,0.26836523403672274,0.3936885677972878,0.4980392156862745,0.4980392156862745,0.4823529411764706,0.5058823529411764,0.4823529411764706,0.49019607843137253,0.49019607843137253,0.5098039215686274
98,41.337461948394775,0,0.2826669450798542,0.41910553094431097,0.5143239933855341,0.3966049918389505,0.22709360011310936,0.27095189087758054,0.3904552493949481,0.5098039215686274,0.5098039215686274,0.5058823529411764,0.4980392156862745,0.5098039215686274,0.5019607843137255,0.5019607843137255,0.5137254901960784
99,41.339407920837395,0,0.27627783095106656,0.43456307247946635,0.5102019797769288,0.39518384882996865,0.22859755044738245,0.29035178539922374,0.3852819410106975,0.4980392156862745,0.49019607843137253,0.5058823529411764,0.5098039215686274,0.4823529411764706,0.5019607843137255,0.49411764705882355,0.5058823529411764
100,41.36707091331482,0,0.2764839309983559,0.44868095948630154,0.5028854112143996,0.3937886369125199,0.2306979503204414,0.30807035456354886,0.37609932564779397,0.4980392156862745,0.49411764705882355,0.49411764705882355,0.49411764705882355,0.5058823529411764,0.49019607843137253,0.49019607843137253,0.4980392156862745
101,41.397381901741035,0,0.27246496952386506,0.4610469960911776,0.5123660344944062,0.3925460370176317,0.23291344291968008,0.3235902744188354,0.3879979248663866,0.5019607843137255,0.49411764705882355,0.49019607843137253,0.49411764705882355,0.5058823529411764,0.5137254901960784,0.5058823529411764,0.49019607843137253
102,41.39926493167877,0,0.2675185557261026,0.4894888785940168,0.5139117932909555,0.3915313870448421,0.2352264671483809,0.3592860879670086,0.38993792014576256,0.49411764705882355,0.5019607843137255,0.5019607843137255,0.5137254901960784,0.4980392156862745,0.5098039215686274,0.5137254901960784,0.5058823529411764
103,41.427076935768135,0,0.2749381764227463,0.48732482387653936,0.514942295637872,0.3910896473247855,0.23640508955758044,0.35657010411131945,0.39123124591745884,0.48627450980392156,0.5098039215686274,0.5058823529411764,0.5098039215686274,0.4980392156862745,0.48627450980392156,0.5058823529411764,0.49411764705882355
104,41.45709800720215,0,0.28173949486705235,0.4572341346639762,0.5145300892118836,0.3911145295182343,0.2361975693095366,0.31880496562020655,0.39071390872207573,0.5137254901960784,0.4980392156862745,0.4980392156862745,0.48627450980392156,0.49411764705882355,0.4980392156862745,0.48627450980392156,0.4980392156862745
105,41.45934498310089,0,0.28586150636518776,0.42549464507309853,0.5140148390936604,0.3912535694352773,0.235694426671817,0.2789705101323515,0.3900672471605939,0.5137254901960784,0.49411764705882355,0.4588235294117647,0.5137254901960784,0.5058823529411764,0.48627450980392156,0.4980392156862745,0.49019607843137253
106,41.4873629808426,0,0.2884377632877136,0.4161170697062667,0.5179307526549765,0.39119637535361473,0.23598280742673772,0.26720124057732275,0.3949818909202516,0.4666666666666667,0.4980392156862745,0.5058823529411764,0.49411764705882355,0.5137254901960784,0.47843137254901963,0.49411764705882355,0.4980392156862745
107,41.51742398738861,0,0.2852432041128499,0.4279678540824497,0.5220527662635817,0.39090471017034867,0.23716275155347302,0.2820744962223949,0.40015519930450216,0.5058823529411764,0.49411764705882355,0.4980392156862745,0.49019607843137253,0.49411764705882355,0.5058823529411764,0.5019607843137255,0.4980392156862745
108,41.576907992362976,0,0.2831821994190171,0.43868508186713184,0.5201978616170382,0.3905994569891698,0.2385051503928747,0.29552508848600917,0.3978272123857022,0.5019607843137255,0.4980392156862745,0.5019607843137255,0.5058823529411764,0.5098039215686274,0.49411764705882355,0.4980392156862745,0.5098039215686274
109,41.57879996299744,0,0.2859645563888324,0.4432192955703158,0.5193734572069413,0.3903801154478153,0.23963904365572894,0.30121572611944525,0.39679254858986607,0.5019607843137255,0.5019607843137255,0.5098039215686274,0.49411764705882355,0.4980392156862745,0.5137254901960784,0.5019607843137255,0.5098039215686274
110,41.58099400997162,0,0.2832852494426618,0.4405399907346151,0.5221558162872263,0.3902644982725933,0.2404304346117424,0.29785308070227423,0.40028453161679856,0.5098039215686274,0.49019607843137253,0.5176470588235295,0.4980392156862745,0.4980392156862745,0.4980392156862745,0.5019607843137255,0.48627450980392156
111,41.60745489597321,0,0.2835943995135958,0.42858615422431756,0.5276174802032121,0.390219586363703,0.24187046573244264,0.2828504900961732,0.4071391600609021,0.5058823529411764,0.4980392156862745,0.4980392156862745,0.48627450980392156,0.5058823529411764,0.49411764705882355,0.49411764705882355,0.49411764705882355
112,41.637799978256226,0,0.2851401540892053,0.42580379725450235,0.5327699940482639,0.39018250145945826,0.24287123104927555,0.2793585097179732,0.4136057915681165,0.48627450980392156,0.5019607843137255,0.5058823529411764,0.49411764705882355,0.5098039215686274,0.5058823529411764,0.5019607843137255,0.5019607843137255
113,41.639912962913506,0,0.2798845902205088,0.4313685133046027,0.538643862279768,0.38999578435675675,0.24440955928314098,0.2863424731231057,0.42097775455887065,0.5019607843137255,0.47843137254901963,0.5019607843137255,0.5019607843137255,0.49019607843137253,0.5019607843137255,0.5098039215686274,0.49411764705882355
114,41.667601943016045,0,0.27730833540845284,0.43981863634816276,0.5463726330473457,0.38973871162041845,0.24605918196072868,0.2969477492187345,0.4306777018196922,0.5019607843137255,0.49411764705882355,0.5019607843137255,0.4980392156862745,0.4823529411764706,0.49019607843137253,0.5019607843137255,0.5137254901960784
115,41.697479009628296,0,0.27287717172891357,0.4351813726213342,0.5515251490028673,0.3893369121382812,0.24794582646935268,0.29112777927300204,0.4371443359756392,0.5019607843137255,0.5333333333333333,0.4117647058823529,0.5058823529411764,0.5019607843137255,0.5058823529411764,0.5019607843137255,0.4980392156862745
116,41.7282429933548,0,0.275041226446391,0.4367271271969438,0.5487427899225823,0.38882570675872025,0.24992037181593577,0.29306776925491285,0.43365235294870663,0.49019607843137253,0.43529411764705883,0.5058823529411764,0.4980392156862745,0.49019607843137253,0.49019607843137253,0.4980392156862745,0.5058823529411764
117,41.730719923973076,0,0.27627783095106656,0.45218467084256897,0.5542044538385681,0.38816331172597096,0.25213540088698055,0.31246766642528856,0.4405069813928103,0.5607843137254902,0.5568627450980392,0.5372549019607843,0.44313725490196076,0.5294117647058824,0.5058823529411764,0.4980392156862745,0.49411764705882355
118,41.75722301006317,0,0.2693734603726461,0.47052762148165417,0.5612118681092235,0.38748171338233156,0.2542199110135525,0.33548887628616064,0.4493015945213595,0.5372549019607843,0.27058823529411763,0.5568627450980392,0.19607843137254902,0.5019607843137255,0.5058823529411764,0.5019607843137255,0.49019607843137253
119,41.75929701328277,0,0.2701978626722732,0.4746496372007293,0.5658491402779315,0.38693627048600265,0.25572509565718765,0.34066218731914377,0.45512157506202217,0.4235294117647059,0.7450980392156863,0.47058823529411764,0.5215686274509804,0.49019607843137253,0.49411764705882355,0.5098039215686274,0.5137254901960784
120,41.78729093074799,0,0.2712283671296594,0.478771644477925,0.5695589453500788,0.38651620799302566,0.25663056487481933,0.3458354877571967,0.45977754360215706,0.3137254901960784,0.615686274509804,0.5137254901960784,0.49019607843137253,0.4980392156862745,0.4980392156862745,0.47843137254901963,0.47843137254901963
121,41.817327976226814,0,0.2760717266828375,0.4879431197974675,0.5679101407508246,0.38622606318223557,0.2570027488784651,0.35734609268763273,0.45770822130794986,0.9450980392156862,0.5843137254901961,0.5019607843137255,0.5882352941176471,0.49411764705882355,0.4980392156862745,0.5019607843137255,0.5019607843137255
122,41.8197979927063,0,0.28050289036237674,0.4976298473457032,0.5688375867426867,0.3860889833272696,0.25683794209130617,0.36950336182828314,0.45887220682115226,0.3137254901960784,0.3764705882352941,0.48627450980392156,0.5568627450980392,0.48627450980392156,0.48627450980392156,0.5058823529411764,0.5215686274509804
123,41.84788596630096,0,0.2839035538054695,0.5043281199873042,0.5635820313158698,0.3861928931046799,0.255870717674584,0.3779099886148735,0.45227625359657153,0.4627450980392157,0.48627450980392156,0.5137254901960784,0.5372549019607843,0.5137254901960784,0.49411764705882355,0.49411764705882355,0.49411764705882355
124,41.877039909362786,0,0.2918384225098666,0.5083470772408553,0.5571929214080219,0.38660575104515743,0.25394392897563556,0.38295395674063004,0.44425763963926557,0.37254901960784315,0.4549019607843137,0.48627450980392156,0.5176470588235295,0.4549019607843137,0.49019607843137253,0.5098039215686274,0.5137254901960784
125,41.87963700294495,0,0.30224650233408473,0.5122629886917014,0.5512160073738129,0.3872591668746076,0.25111733934668373,0.3878685978515553,0.43675634963368015,0.3764705882352941,0.4392156862745098,0.49411764705882355,0.48627450980392156,0.5058823529411764,0.4823529411764706,0.4980392156862745,0.4980392156862745
126,41.907797932624824,0,0.308944770754746,0.5172094024894639,0.5391591123979912,0.3881148134332261,0.24743084664592707,0.39407656473417696,0.42162441612035256,0.5372549019607843,0.4196078431372549,0.4627450980392157,0.48627450980392156,0.48627450980392156,0.5058823529411764,0.49019607843137253,0.49019607843137253
127,41.93735098838806,0,0.3130667822528814,0.5198887094356345,0.5295754390943399,0.38908438197824313,0.2431788071688889,0.3974392128000805,0.40959648458946346,0.49411764705882355,0.5568627450980392,0.5137254901960784,0.5019607843137255,0.47058823529411764,0.5098039215686274,0.49411764705882355,0.5137254901960784
128,41.93989598751068,0,0.3160552413804558,0.5117477364630082,0.5161788938111378,0.39018757113353325,0.23841080783738663,0.38722193364134083,0.392783231016283,1.0,0.5333333333333333,0.5686274509803921,0.4627450980392157,0.5450980392156862,0.5333333333333333,0.48627450980392156,0.5647058823529412
129,41.96816897392272,0,0.33037923054505014,0.4976298473457032,0.5052555659791663,0.39144381994718247,0.2329772853200094,0.36950336182828314,0.3790739741280759,0.0196078431372549,0.4549019607843137,0.4117647058823529,0.5333333333333333,0.5098039215686274,0.43529411764705883,0.5098039215686274,0.5215686274509804
130,42.026994943618774,0,0.3487221820283232,0.4857790650799901,0.5065952226179564,0.39261197191666497,0.2271906682143776,0.35463010883194357,0.38075530213412645,0.16470588235294117,0.5058823529411764,0.49019607843137253,0.5058823529411764,0.5333333333333333,0.5019607843137255,0.5019607843137255,0.4823529411764706
131,42.028723955154426,0,0.35954246215816693,0.4857790650799901,0.49258037930335624,0.3935414571922058,0.2212877770478548,0.35463010883194357,0.36316605733590007,0.5568627450980392,0.49411764705882355,0.47843137254901963,0.49019607843137253,0.45098039215686275,0.5019607843137255,0.49411764705882355,0.5058823529411764
132,42.03097295761109,0,0.369435288698457,0.48176010571596917,0.480111301116715,0.39434206308871406,0.21529175909407816,0.3495861380574545,0.3475168157632473,0.6313725490196078,0.5137254901960784,0.5019607843137255,0.4980392156862745,0.5137254901960784,0.5098039215686274,0.5019607843137255,0.47843137254901963
133,42.05758392810822,0,0.3727328978969653,0.4802143490298898,0.4668178100780973,0.3951275341275083,0.20877524400700226,0.3476461454268111,0.33083289979982816,0.5764705882352941,0.5137254901960784,0.5019607843137255,0.5019607843137255,0.5568627450980392,0.5019607843137255,0.5098039215686274,0.47843137254901963
134,42.06033992767335,0,0.37489695472491263,0.4721764260809083,0.4659934098889401,0.3957579960407964,0.2018397720079101,0.33755819858036784,0.3297982413014571,0.5372549019607843,0.5019607843137255,0.48627450980392156,0.5254901960784314,0.4666666666666667,0.5058823529411764,0.49019607843137253,0.4627450980392157
135,42.087938904762275,0,0.388911793818573,0.4543487318914561,0.455585330064722,0.39627712113064173,0.194484177124739,0.31518365822717526,0.31673564332599935,0.5098039215686274,0.49411764705882355,0.5215686274509804,0.4745098039215686,0.47058823529411764,0.5019607843137255,0.4823529411764706,0.4627450980392157
136,42.11729598045349,0,0.40467848542466234,0.4271434496723527,0.444558950098636,0.396688620271328,0.18695107186829038,0.2810398324265587,0.3028970514767633,0.5019607843137255,0.49411764705882355,0.5058823529411764,0.5137254901960784,0.5137254901960784,0.4745098039215686,0.49411764705882355,0.5176470588235295
137,42.11982095241547,0,0.4240519447420734,0.4161170697062667,0.43528442264497885,0.3969107668204389,0.17967561624212647,0.26720124057732275,0.2912571115852984,0.5137254901960784,0.5254901960784314,0.5372549019607843,0.49411764705882355,0.4549019607843137,0.5019607843137255,0.5176470588235295,0.5294117647058824
138,42.14813899993897,0,0.4368301772205884,0.4069455943867241,0.42240314014281927,0.39710588305401395,0.1732573633049463,0.2556906356468867,0.27509053546599493,0.5529411764705883,0.4470588235294118,0.43137254901960786,0.49411764705882355,0.5019607843137255,0.5019607843137255,0.49019607843137253,0.4823529411764706
139,42.17767989635468,1,0.4420857410892849,0.3965375166729759,0.42971970870534854,0.3974871945899807,0.16664511560754708,0.24262804032016153,0.2842731508288985,0.43529411764705883,0.5254901960784314,0.5058823529411764,0.5058823529411764,0.49411764705882355,0.5176470588235295,0.5098039215686274,0.5019607843137255
140,42.180083990097046,1,0.43662407717329915,0.3798433685226751,0.4221970358745902,0.397707304263771,0.15961291851805012,0.22167615010476413,0.27483186554393707,0.5294117647058824,0.5529411764705883,0.5215686274509804,0.5019607843137255,0.49019607843137253,0.5019607843137255,0.5137254901960784,0.5098039215686274
141,42.2078219652176,1,0.4608408960438883,0.33996290754202374,0.40570898988204857,0.3976837835188461,0.15209503632210902,0.17162441744471882,0.254138642601865,0.5254901960784314,0.5137254901960784,0.5607843137254902,0.5019607843137255,0.5098039215686274,0.5137254901960784,0.49411764705882355,0.49411764705882355
142,42.238127946853645,1,0.4807296054795227,0.28998351786332316,0.3873660392429635,0.3975855022980761,0.144852477424303,0.10889808507047125,0.23111743274099295,0.49411764705882355,0.4666666666666667,0.47843137254901963,0.48627450980392156,0.5137254901960784,0.48627450980392156,0.5058823529411764,0.5058823529411764
143,42.240217924118035,1,0.4947444340208337,0.2672094035446988,0.3776793116947278,0.3975317462712461,0.1390008402918561,0.08031556988845946,0.21896016360034248,0.49411764705882355,0.5647058823529412,0.4549019607843137,0.48627450980392156,0.4823529411764706,0.4980392156862745,0.5098039215686274,0.49019607843137253
144,42.26807796955109,1,0.4837180582756875,0.24618714595944313,0.39983512587148423,0.39762495516920854,0.13384191187654665,0.053931711961683816,0.24676668490857592,0.49411764705882355,0.4549019607843137,0.5019607843137255,0.4980392156862745,0.48627450980392156,0.5019607843137255,0.49019607843137253,0.5098039215686274
145,42.29684698581696,1,0.47568013743717574,0.24134378218532532,0.40766694666270653,0.39780973075096077,0.13018969377481346,0.04785307739135858,0.2565959644816939,0.4980392156862745,0.4666666666666667,0.4823529411764706,0.4980392156862745,0.4980392156862745,0.4980392156862745,0.4823529411764706,0.4823529411764706
146,42.299467921257026,1,0.4717642238758598,0.25463726689253335,0.42477329490758603,0.397974455427411,0.12797433890966667,0.0645369854085801,0.27806518394627683,0.5019607843137255,0.49411764705882355,0.49019607843137253,0.5058823529411764,0.5098039215686274,0.4980392156862745,0.5019607843137255,0.5098039215686274
147,42.32791793346404,1,0.47145507380492585,0.2661788990873125,0.43085326107590954,0.3980547120232695,0.12700444192181512,0.07902224146803057,0.2856958089128912,0.5058823529411764,0.4745098039215686,0.5254901960784314,0.5098039215686274,0.5058823529411764,0.5294117647058824,0.5019607843137255,0.5215686274509804
148,42.357122898101814,1,0.47691673983138144,0.2579348760910417,0.4333264679747908,0.3980233881122919,0.12661625692491588,0.06867562999699452,0.288799792354202,0.5058823529411764,0.47843137254901963,0.4823529411764706,0.4980392156862745,0.4980392156862745,0.49411764705882355,0.49411764705882355,0.49411764705882355
149,42.35975193977357,1,0.4884583720261606,0.23309975918905448,0.4298227587289931,0.39796975657589106,0.12687586449829166,0.03750646592032253,0.2844024831411949,0.5019607843137255,0.4980392156862745,0.5137254901960784,0.5058823529411764,0.49019607843137253,0.49019607843137253,0.49411764705882355,0.48627450980392156
150,42.387833952903755,1,0.5028854112143996,0.22166117490745008,0.42508244497852,0.3980486199384353,0.12891316891359664,0.023150539524435933,0.27845318088316595,0.5058823529411764,0.49019607843137253,0.4823529411764706,0.48627450980392156,0.49019607843137253,0.5019607843137255,0.5019607843137255,0.49411764705882355
151,42.47733592987061,1,0.5047403158609431,0.2333058613468136,0.41910553094431097,0.39834592957073695,0.13453807295167228,0.03776513319364781,0.27095189087758054,0.49411764705882355,0.5254901960784314,0.5098039215686274,0.5215686274509804,0.5058823529411764,0.4980392156862745,0.5294117647058824,0.5137254901960784
152,42.479517936706536,1,0.5024732068988812,0.25133965769402505,0.4105523536561664,0.3986092771544543,0.14218437046870566,0.06039834082016568,0.2602172771721903,0.48627450980392156,0.4980392156862745,0.5019607843137255,0.47843137254901963,0.49019607843137253,0.4980392156862745,0.5137254901960784,0.5058823529411764
153,42.50804591178893,1,0.3591302610083534,0.4353874726686235,0.595836764693561,0.39577564984315283,0.19433864251551636,0.29138644389759477,0.4927573626997109,0.5490196078431373,0.4470588235294118,0.5254901960784314,0.5490196078431373,0.4666666666666667,0.5215686274509804,0.6352941176470588,0.7450980392156863
154,42.536886930465705,1,0.36624072952359327,0.5068013226652458,0.6424155104510152,0.3911194561607523,0.21126513735083355,0.38101396675871924,0.5512157373765586,0.4980392156862745,0.5372549019607843,0.5176470588235295,0.5294117647058824,0.08627450980392157,0.5019607843137255,0.43137254901960786,0.40784313725490196
155,42.539398908615105,1,0.4565127866089335,0.31038747530671085,0.3126545813141149,0.3862764076415584,0.22479843628790272,0.13450594912346858,0.1373512668806936,0.8549019607843137,0.5411764705882353,0.4980392156862745,0.4,0.9607843137254902,0.5176470588235295,0.5333333333333333,0.5490196078431373
156,42.56760799884796,1,0.29225062471491503,0.6087180598585399,0.4072547444576581,0.37975611546188537,0.24264530211010246,0.5089239547114096,0.25607863258377583,0.35294117647058826,0.5843137254901961,0.5450980392156862,0.48627450980392156,0.20392156862745098,0.45098039215686275,0.4627450980392157,0.25098039215686274
157,42.59700393676758,1,0.07553586993663712,0.9263190431517859,0.37139324547911495,0.37451650135604647,0.25565893031842374,0.9075271583221575,0.21107087400913532,0.0,0.050980392156862744,0.3058823529411765,0.1607843137254902,0.5725490196078431,0.39215686274509803,0.396078431372549,0.8901960784313725
158,42.599460005760186,1,0.1937345509647137,0.8892209291162179,0.4579554827190188,0.37596217957451467,0.25179783581758797,0.8609673934588327,0.3197102891575487,0.4470588235294118,0.7607843137254902,0.4823529411764706,0.6,0.6470588235294118,0.4745098039215686,0.4235294117647059,0.4823529411764706
159,42.62828493118286,1,0.3432605168460556,0.5812036317894422,0.47969909680119666,0.3787700479618979,0.24431052317359808,0.4743921372713689,0.3469994812165967,0.4549019607843137,0.3764705882352941,0.5686274509803921,0.611764705882353,0.35294117647058826,0.5490196078431373,0.5176470588235295,0.20392156862745098
160,42.65847396850586,1,0.456718882435283,0.4288953042952516,0.4880461698211121,0.3809547940738519,0.23878219987000393,0.2832384870330623,0.35747542499992907,0.45098039215686275,0.6,0.48627450980392156,0.5843137254901961,0.6352941176470588,0.5254901960784314,0.48627450980392156,0.29411764705882354
161,42.679085969924934,1,0.47372218065651783,0.4530090689212563,0.5154575478665651,0.3809515016993089,0.2375524436791856,0.3135023222749271,0.3918779101276733,0.5725490196078431,0.5098039215686274,0.5019607843137255,0.5137254901960784,0.5254901960784314,0.4745098039215686,0.4549019607843137,0.49019607843137253
162,42.70643401145935,1,0.36861088850929974,0.5092745337850667,0.503812869869081,0.3802417605724683,0.23983248853907335,0.3841179554974951,0.37726332705339155,0.5294117647058824,0.4980392156862745,0.49019607843137253,0.4980392156862745,0.5019607843137255,0.4745098039215686,0.47058823529411764,0.4235294117647059
163,42.718775987625115,1,0.3701566430849093,0.5406018211708958,0.49031327667270413,0.3793640288819597,0.2416577115889065,0.4234350790874321,0.36032074381664714,0.5843137254901961,0.5333333333333333,0.5019607843137255,0.5019607843137255,0.4823529411764706,0.5019607843137255,0.4549019607843137,0.4588235294117647
164,42.721614003181465,1,0.3814921731219293,0.5280296824082605,0.48619126939550844,0.3790541086340514,0.24168909112326742,0.40765649195882014,0.3551474433785942,0.5529411764705883,0.5137254901960784,0.5372549019607843,0.5176470588235295,0.5254901960784314,0.5294117647058824,0.5019607843137255,0.4980392156862745
165,42.748052954673774,1,0.38602638471464323,0.4977329015902876,0.4915498790669098,0.3793163967247543,0.24059102461670304,0.36963269943804467,0.36187273421293625,0.4980392156862745,0.4823529411764706,0.5607843137254902,0.48627450980392156,0.5215686274509804,0.5176470588235295,0.5294117647058824,0.5098039215686274
166,42.7782039642334,1,0.37335120014930306,0.4943322381471949,0.4874278696792443,0.37935179968383825,0.24009089888534263,0.36536471723986874,0.35669943112615077,0.5176470588235295,0.5176470588235295,0.4666666666666667,0.5098039215686274,0.5294117647058824,0.49411764705882355,0.47058823529411764,0.4666666666666667
167,42.78023195266724,1,0.3635614234216107,0.49938170618954175,0.4883553241129858,0.3793721287060566,0.23986596851833583,0.37170202173225186,0.3578634272342833,0.5098039215686274,0.5254901960784314,0.49019607843137253,0.5137254901960784,0.5058823529411764,0.5058823529411764,0.5019607843137255,0.5098039215686274
168,42.80813896656037,1,0.36108821652272943,0.5002061042682291,0.48546991078811635,0.3793660498648851,0.23955675018454978,0.3727366775818904,0.3542421065975894,0.5137254901960784,0.49019607843137253,0.4745098039215686,0.5254901960784314,0.4980392156862745,0.4980392156862745,0.5098039215686274,0.4980392156862745
169,42.83856797218323,1,0.36170651793087927,0.49680544504607616,0.4771228398786708,0.3793830679714327,0.2391690340133095,0.36846870068117954,0.34376616546298944,0.5058823529411764,0.5019607843137255,0.47058823529411764,0.5019607843137255,0.5019607843137255,0.4980392156862745,0.49411764705882355,0.5058823529411764
170,42.83998095989227,1,0.36057296556031826,0.49866034758214967,0.4803173990535345,0.3795138226531012,0.23871683179973352,0.37079668495124707,0.34777547773910744,0.5137254901960784,0.49019607843137253,0.5176470588235295,0.49019607843137253,0.49019607843137253,0.5098039215686274,0.5098039215686274,0.5098039215686274
171,42.86790299415589,1,0.36057296556031826,0.49969084781859613,0.48103874710857714,0.37970418706050557,0.23810130344048663,0.3720900080742109,0.3486808012764496,0.5019607843137255,0.5019607843137255,0.5098039215686274,0.49411764705882355,0.49411764705882355,0.4980392156862745,0.49019607843137253,0.5294117647058824
172,42.927361011505134,1,0.3655193793580807,0.5024732068988812,0.4847485606226038,0.3799459898537704,0.23743825152206835,0.3755819911011433,0.3533367804115147,0.5215686274509804,0.5098039215686274,0.5215686274509804,0.5019607843137255,0.5058823529411764,0.5058823529411764,0.49019607843137253,0.5058823529411764
173,42.92930996417999,0,0.36974444087986075,0.5041220114981354,0.483305856070639,0.380236566407964,0.23662978683612404,0.3776513133953505,0.35152612274190026,0.49411764705882355,0.4980392156862745,0.5058823529411764,0.4823529411764706,0.4980392156862745,0.4980392156862745,0.49019607843137253,0.4745098039215686
174,42.95730197429657,0,0.36129431699211273,0.5136026432200216,0.4870156674741958,0.3807963018650602,0.23535580210940982,0.3895499232088733,0.35618209922823274,0.5058823529411764,0.5098039215686274,0.4745098039215686,0.4980392156862745,0.4980392156862745,0.5098039215686274,0.5176470588235295,0.47843137254901963
175,42.95988690853119,0,0.3588211100932315,0.5255564712884395,0.4789777466356841,0.38098078078876835,0.23496481210475434,0.4045525032200443,0.346094155030522,0.4235294117647059,0.4666666666666667,0.5098039215686274,0.49411764705882355,0.5058823529411764,0.5098039215686274,0.5019607843137255,0.5450980392156862
176,42.98832392692566,0,0.3534624949346084,0.5448268763612663,0.48433635630708544,0.38132912090211973,0.23445021634754654,0.4287377091890489,0.352819445864864,0.5176470588235295,0.49411764705882355,0.4745098039215686,0.47843137254901963,0.5019607843137255,0.49019607843137253,0.48627450980392156,0.49019607843137253
177,43.01721501350403,0,0.35572960178620044,0.5380255600274303,0.4914468248223253,0.382278145877583,0.23271887497374014,0.4202017580363598,0.36174339660317484,0.4980392156862745,0.4980392156862745,0.5019607843137255,0.49019607843137253,0.5137254901960784,0.5019607843137255,0.4980392156862745,0.48627450980392156
178,43.019739985466,0,0.38396538002081054,0.519682611498815,0.4929925836188746,0.38369840950736267,0.22912916960860286,0.3971805508242202,0.3636833918825507,0.49019607843137253,0.5098039215686274,0.4823529411764706,0.4980392156862745,0.48627450980392156,0.48627450980392156,0.4588235294117647,0.49019607843137253
179,43.04781997203827,0,0.4122011582554206,0.4957749426991597,0.4862943151982133,0.38505605709997753,0.2250874130076442,0.36717537490948327,0.35527677039342553,0.5333333333333333,0.5137254901960784,0.5333333333333333,0.5098039215686274,0.49411764705882355,0.5019607843137255,0.5058823529411764,0.4823529411764706
180,43.077188968658454,0,0.42755565187740124,0.48753091970288887,0.4802143490298898,0.386304685510119,0.2209981752272347,0.3568287634384472,0.3476461454268111,0.5019607843137255,0.45098039215686275,0.4392156862745098,0.4980392156862745,0.48627450980392156,0.49411764705882355,0.5019607843137255,0.47058823529411764
181,43.079768896102905,0,0.43198681344647055,0.47949299675390744,0.4648598554079092,0.3874363935686305,0.21695645570853153,0.34674081659200384,0.3283755805687318,0.5098039215686274,0.5215686274509804,0.5098039215686274,0.5058823529411764,0.4980392156862745,0.4980392156862745,0.5058823529411764,0.5137254901960784
182,43.10789597034454,0,0.4317807133991813,0.4669208643226817,0.4691879732847436,0.3887119966709246,0.21242940627841733,0.3309622374095896,0.33380755887504016,0.48627450980392156,0.4980392156862745,0.5098039215686274,0.5137254901960784,0.49411764705882355,0.49411764705882355,0.4549019607843137,0.47843137254901963
183,43.137306928634644,0,0.44868095948630154,0.45331822321313003,0.4612530919175271,0.3898291790802056,0.20748266517788122,0.31389032450928134,0.32384893374596313,0.49019607843137253,0.4980392156862745,0.5058823529411764,0.4980392156862745,0.5176470588235295,0.49411764705882355,0.5058823529411764,0.5058823529411764
184,43.16782701015472,0,0.4659934098889401,0.4481657093680783,0.4562036323170598,0.39076253945144745,0.20242177165121586,0.3074236930020669,0.3175116398485102,0.5254901960784314,0.5176470588235295,0.5215686274509804,0.5019607843137255,0.5019607843137255,0.5098039215686274,0.5058823529411764,0.49411764705882355
185,43.168503999710076,0,0.4671269622595012,0.4237427904501997,0.4504328183301401,0.39168943691530006,0.1971036507022321,0.27677185552584793,0.31026901446751753,0.5058823529411764,0.4980392156862745,0.5490196078431373,0.49411764705882355,0.5019607843137255,0.4823529411764706,0.5058823529411764,0.5176470588235295
186,43.1972599029541,0,0.46650866000716334,0.4032357850936372,0.43950948627722886,0.3924802160140976,0.19181690346039768,0.25103466180928674,0.29655975228184533,0.5019607843137255,0.49411764705882355,0.4627450980392157,0.49411764705882355,0.5058823529411764,0.4980392156862745,0.5019607843137255,0.5058823529411764
187,43.227320909500115,0,0.4751648873189525,0.3942704077109141,0.4353874726686235,0.3931084688844502,0.18686965645194709,0.23978271885471095,0.29138644389759477,0.4980392156862745,0.48627450980392156,0.4627450980392157,0.49411764705882355,0.48627450980392156,0.4980392156862745,0.5137254901960784,0.5019607843137255
188,43.229713916778564,0,0.47609233331081463,0.3861294368487578,0.43404782025077315,0.39359330348287697,0.1819387971517003,0.2295654423447038,0.28970512118900926,0.5058823529411764,0.49411764705882355,0.4980392156862745,0.49411764705882355,0.4980392156862745,0.5058823529411764,0.5019607843137255,0.4980392156862745
189,43.28734195232392,0,0.47382523068016247,0.37737016162379383,0.4309563110995542,0.3939010040929195,0.17750914161695636,0.21857216666345333,0.2858251412251876,0.4980392156862745,0.5019607843137255,0.49019607843137253,0.5019607843137255,0.4745098039215686,0.4823529411764706,0.5058823529411764,0.5176470588235295
190,43.28983998298645,0,0.4804204490771791,0.36644683168135245,0.427864804058805,0.3941277011645283,0.17338662860430948,0.2048629071265137,0.2819451639100985,0.48627450980392156,0.49019607843137253,0.48627450980392156,0.48627450980392156,0.4823529411764706,0.5019607843137255,0.49411764705882355,0.5019607843137255
191,43.347669005393975,0,0.48083265128222763,0.34861913158258456,0.42662819955412945,0.39438289330076554,0.16664511852115288,0.18248835935687005,0.2803931708650768,0.5019607843137255,0.5058823529411764,0.5019607843137255,0.5019607843137255,0.5019607843137255,0.5098039215686274,0.48627450980392156,0.49411764705882355
192,43.3772519826889,0,0.47052762148165417,0.3474855787899296,0.43023495882357177,0.39446777193490046,0.1644302274490733,0.18106570074313078,0.28491981239038044,0.4980392156862745,0.5411764705882353,0.5176470588235295,0.5058823529411764,0.5137254901960784,0.49019607843137253,0.5058823529411764,0.4980392156862745
193,43.379763007164,0,0.4805234969903539,0.35387469629546897,0.43641797712600977,0.3945919047852275,0.16202152835241845,0.18908432423587385,0.2926797723180237,0.4980392156862745,0.4980392156862745,0.4627450980392157,0.47843137254901963,0.5098039215686274,0.5019607843137255,0.4980392156862745,0.4980392156862745
194,43.40669989585877,0,0.4740313328379216,0.35892416096106405,0.4400247363954521,0.39466322190877506,0.16184349326522537,0.19542162449028486,0.29720641384332724,0.49019607843137253,0.48627450980392156,0.4980392156862745,0.5019607843137255,0.48627450980392156,0.49019607843137253,0.49019607843137253,0.5019607843137255
195,43.40899896621704,0,0.4583676870345372,0.36861088850929974,0.45816159120818767,0.3948676510859487,0.16242566322203328,0.20757889363093535,0.3199689643770717,0.4666666666666667,0.4470588235294118,0.5176470588235295,0.5450980392156862,0.49411764705882355,0.49019607843137253,0.49411764705882355,0.5019607843137255
196,43.437783002853394,0,0.4492992638491091,0.3715993455264043,0.4390972840721804,0.3948564734346443,0.1635410365469917,0.21132953863372808,0.29604242038392725,0.5058823529411764,0.4980392156862745,0.47843137254901963,0.47843137254901963,0.49411764705882355,0.5137254901960784,0.49019607843137253,0.5019607843137255
197,43.46724498271942,0,0.4423948932706887,0.3866446890774509,0.45239077088985835,0.394731816135275,0.16603067614224598,0.23021210655491825,0.31272633104988135,0.5137254901960784,0.5137254901960784,0.5333333333333333,0.5019607843137255,0.4745098039215686,0.4980392156862745,0.5058823529411764,0.5294117647058824
198,43.468701004982,0,0.44868095948630154,0.3936521075690462,0.45342127323677467,0.3946927738176857,0.16940960119933338,0.23900672498093264,0.3140196568215777,0.4980392156862745,0.5333333333333333,0.5294117647058824,0.5019607843137255,0.5019607843137255,0.5019607843137255,0.49019607843137253,0.4745098039215686
199,43.52789294719696,0,0.46279885071407645,0.3956100622392343,0.45012366403826637,0.3946413168906975,0.17269139299633215,0.241464044212029,0.3098810122331633,0.49411764705882355,0.49411764705882355,0.49019607843137253,0.5058823529411764,0.4980392156862745,0.5058823529411764,0.49019607843137253,0.47843137254901963
200,43.5301479101181,0,0.4700123650320212,0.40086562610793075,0.4480626551234938,0.3942686137354746,0.176878486346193,0.2480600080315398,0.3072943553923055,0.4980392156862745,0.48627450980392156,0.4745098039215686,0.4745098039215686,0.49411764705882355,0.48627450980392156,0.5098039215686274,0.49411764705882355
201,43.58693897724152,0,0.4432192955703158,0.4194146789047751,0.4368301772205884,0.3926735999765937,0.18869664090891702,0.27133988516573715,0.29319710156720924,0.5019607843137255,0.5019607843137255,0.5215686274509804,0.5450980392156862,0.49411764705882355,0.5058823529411764,0.5058823529411764,0.4980392156862745
202,43.588955998420715,0,0.43703627726787764,0.4255976950967432,0.47021847352119006,0.39166408854492496,0.195308021676157,0.2790998424446479,0.33510088199800403,0.5098039215686274,0.4980392156862745,0.49019607843137253,0.4823529411764706,0.5058823529411764,0.5019607843137255,0.5058823529411764,0.4823529411764706
203,43.59108591079712,0,0.43930338200899977,0.45537923212790254,0.48917972430214307,0.39024638094204306,0.2021794470576413,0.31647698135013913,0.3588980857326544,0.47058823529411764,0.5058823529411764,0.5098039215686274,0.49411764705882355,0.48627450980392156,0.5019607843137255,0.49019607843137253,0.5019607843137255
204,43.61724591255188,0,0.44394064784629816,0.48279060595241574,0.4807296054795227,0.388287696205889,0.20927615906065858,0.3508794611804183,0.3482928149344906,0.5215686274509804,0.5058823529411764,0.4549019607843137,0.5098039215686274,0.4980392156862745,0.5019607843137255,0.5058823529411764,0.4980392156862745
205,43.64692997932434,0,0.4487840137308859,0.4887675199866247,0.4709398236867026,0.3860266586506838,0.21592107675491054,0.3583807511860038,0.33600620818407867,0.4980392156862745,0.5019607843137255,0.5098039215686274,0.48627450980392156,0.4980392156862745,0.5019607843137255,0.48627450980392156,0.5019607843137255
206,43.64859092235565,0,0.43394477233759843,0.4826875517078313,0.4882522698684015,0.38368467582916044,0.2216931099391959,0.3507501235706568,0.35773408962452186,0.48627450980392156,0.5137254901960784,0.5137254901960784,0.5058823529411764,0.5019607843137255,0.5019607843137255,0.4980392156862745,0.5058823529411764
207,43.67732000350952,0,0.41797197646328,0.47609233331081463,0.5024732068988812,0.38110389387706883,0.2270621172781795,0.342472834393828,0.3755819911011433,0.5137254901960784,0.48627450980392156,0.4823529411764706,0.4745098039215686,0.5019607843137255,0.49019607843137253,0.49411764705882355,0.5019607843137255
208,43.70679199695587,0,0.4070486444103688,0.5009274565442116,0.5096867296587057,0.3780785168712462,0.23291402564083813,0.3736420064166976,0.3846352794492156,0.5607843137254902,0.49019607843137253,0.49019607843137253,0.49019607843137253,0.49019607843137253,0.4980392156862745,0.5098039215686274,0.5058823529411764
209,43.82786595821381,0,0.4233305903556211,0.5113355342579597,0.4906224330750477,0.3748713758925656,0.2384411358249305,0.3867046017434228,0.3607087486997339,0.4980392156862745,0.5058823529411764,0.5019607843137255,0.5098039215686274,0.4980392156862745,0.5058823529411764,0.5058823529411764,0.4980392156862745
210,43.82994592189789,0,0.4251854950021646,0.5142209475828292,0.4865004110245628,0.3716249250743095,0.24364791359351337,0.39032592238011676,0.3555354297205532,0.4549019607843137,0.49411764705882355,0.4745098039215686,0.49411764705882355,0.4980392156862745,0.49019607843137253,0.49411764705882355,0.5098039215686274
211,43.85746490955353,0,0.39210635299343666,0.5420445172809812,0.4623866463985581,0.3543881471147265,0.2700953516960972,0.4252457261621164,0.3252715944786885,0.5490196078431373,0.5176470588235295,0.47058823529411764,0.4745098039215686,0.41568627450980394,0.5019607843137255,0.5019607843137255,0.4745098039215686
212,43.88766896724701,0,0.37603050709547364,0.5627576184638933,0.46341714663500455,0.3524160174122168,0.2739916160675538,0.4512415792058053,0.3265649176016523,0.4745098039215686,0.5137254901960784,0.5058823529411764,0.4980392156862745,0.5411764705882353,0.48627450980392156,0.5019607843137255,0.49411764705882355
213,43.890044927597046,0,0.36840478635154056,0.5510098988846441,0.4707337236394133,0.35156172170719197,0.2764989513151385,0.43649767441415727,0.33574754355948594,0.49411764705882355,0.5019607843137255,0.5176470588235295,0.5098039215686274,0.49019607843137253,0.49411764705882355,0.49411764705882355,0.5058823529411764
214,43.91734194755554,0,0.3678895341228474,0.5220527662635817,0.46321105080865504,0.3513613715781246,0.2777885026429702,0.40015519930450216,0.3263062582745246,0.4980392156862745,0.4980392156862745,0.5215686274509804,0.5137254901960784,0.4980392156862745,0.49019607843137253,0.5098039215686274,0.5019607843137255
215,43.94728398323059,0,0.3766488093478114,0.5208161659798459,0.45115416849565265,0.3511708747340934,0.27892226346919763,0.3986032115569456,0.3111743406535922,0.49411764705882355,0.49411764705882355,0.5019607843137255,0.49019607843137253,0.5137254901960784,0.49019607843137253,0.5058823529411764,0.5058823529411764
216,43.949469923973076,0,0.37180544768416346,0.5389530165716417,0.4417765910183509,0.35081624652970017,0.2806365576003986,0.4213657567932249,0.2994050684498309,0.4823529411764706,0.5058823529411764,0.4980392156862745,0.49019607843137253,0.5019607843137255,0.5058823529411764,0.4980392156862745,0.5019607843137255
217,43.977097988128655,0,0.3566570541094721,0.5489488984117511,0.438066781725264,0.35073686666431125,0.2823026421507011,0.4339110281682296,0.2947490946122309,0.5333333333333333,0.48627450980392156,0.49411764705882355,0.5098039215686274,0.4980392156862745,0.49411764705882355,0.4980392156862745,0.5019607843137255
218,44.007134914398186,0,0.3463520253641336,0.5420445172809812,0.4428070954757372,0.35115792243198957,0.2832892685332537,0.4252457261621164,0.3006983968702598,0.49411764705882355,0.4980392156862745,0.4980392156862745,0.49411764705882355,0.5019607843137255,0.5098039215686274,0.47843137254901963,0.5058823529411764
219,44.009467005729675,0,0.33511954408447636,0.5335943984583609,0.4461047088951853,0.35174200503856207,0.2838725777099256,0.4146404553639526,0.30483704675613926,0.48627450980392156,0.49019607843137253,0.49411764705882355,0.5411764705882353,0.5058823529411764,0.5058823529411764,0.5058823529411764,0.5058823529411764
220,44.03704500198364,0,0.3328524376549784,0.5301937434571476,0.4413643909237723,0.3522518224822738,0.28446602093728246,0.41037248376070695,0.2988877392006453,0.5098039215686274,0.4980392156862745,0.4980392156862745,0.5137254901960784,0.5058823529411764,0.48627450980392156,0.5019607843137255,0.4823529411764706
221,44.06718289852142,0,0.331821934885968,0.5359645490021878,0.4417765910183509,0.3526617323834382,0.2851648042576193,0.4176150985467695,0.2994050684498309,0.49411764705882355,0.48627450980392156,0.47843137254901963,0.4470588235294118,0.5137254901960784,0.49411764705882355,0.4980392156862745,0.49411764705882355
222,44.06940698623657,0,0.3255358671930263,0.5303998392834972,0.43744847947292625,0.3530696530864675,0.2858785423218577,0.4106311430878346,0.29397309808972005,0.49411764705882355,0.5019607843137255,0.5058823529411764,0.5098039215686274,0.49411764705882355,0.4980392156862745,0.4980392156862745,0.49019607843137253
223,44.09712994098663,0,0.32605111899962547,0.5249381732570415,0.44023083644274136,0.35351349325142545,0.2863417526678558,0.40377651199499853,0.29746507846792003,0.5019607843137255,0.4980392156862745,0.49411764705882355,0.4823529411764706,0.5019607843137255,0.5019607843137255,0.5019607843137255,0.5019607843137255
224,44.12708389759064,0,0.3270816213465418,0.5261747756512473,0.44074608867143455,0.35380389234053905,0.28687487101169185,0.40532850239128765,0.29811174267813445,0.4980392156862745,0.49019607843137253,0.49019607843137253,0.48627450980392156,0.49019607843137253,0.49019607843137253,0.49411764705882355,0.5058823529411764
225,44.12925899028778,0,0.31842539741150444,0.5402926668790221,0.44270404545209247,0.3537413372242225,0.28779771591476355,0.4230470768530779,0.30056906455796334,0.4823529411764706,0.4980392156862745,0.4980392156862745,0.5098039215686274,0.49019607843137253,0.5019607843137255,0.5058823529411764,0.4980392156862745
226,44.15708589553833,0,0.3126545813141149,0.5408079169972454,0.43775763165432996,0.353777783783926,0.2884955403939221,0.42369373841455976,0.29436109767534174,0.5019607843137255,0.4823529411764706,0.5019607843137255,0.49019607843137253,0.4980392156862745,0.5019607843137255,0.49411764705882355,0.5019607843137255
227,44.21754693984985,0,0.31337593337905034,0.5411170712891191,0.44198269106564014,0.3539494852218776,0.28886340166606816,0.42408174064891396,0.2996637330744236,0.5058823529411764,0.5019607843137255,0.5137254901960784,0.5137254901960784,0.48627450980392156,0.5098039215686274,0.4980392156862745,0.4980392156862745
228,44.24712491035461,0,0.3119332298823204,0.5485366898752929,0.44332234981490015,0.35397996153844347,0.28931484899087123,0.4333936883241139,0.3013450637292068,0.5098039215686274,0.5058823529411764,0.5137254901960784,0.5058823529411764,0.49019607843137253,0.4980392156862745,0.5019607843137255,0.4980392156862745
229,44.24957692623138,0,0.3099752731016624,0.5509068446400597,0.4430131955230264,0.35405115946902693,0.289642444230996,0.43636833680439585,0.3009570614948526,0.4980392156862745,0.49411764705882355,0.5019607843137255,0.49411764705882355,0.49411764705882355,0.5058823529411764,0.5019607843137255,0.5058823529411764
230,44.27761995792389,0,0.30935697295979453,0.5442085719984586,0.44311624554667106,0.35508479290790634,0.28862326227683627,0.42796171001780553,0.3010863938071489,0.5019607843137255,0.5019607843137255,0.5019607843137255,0.5058823529411764,0.49411764705882355,0.5058823529411764,0.5019607843137255,0.5098039215686274
231,44.27960801124573,0,0.3145094868048463,0.532357798174625,0.43889118613536093,0.35552290121565516,0.2878159471408128,0.41308846761639606,0.29578375840806703,0.4980392156862745,0.48627450980392156,0.5098039215686274,0.4980392156862745,0.47058823529411764,0.49411764705882355,0.48627450980392156,0.5058823529411764
232,44.307461977005005,0,0.31780709600335466,0.5216405640585332,0.43404782025077315,0.3558265916446373,0.2870539067900372,0.3996378674065841,0.28970512118900926,0.5019607843137255,0.5019607843137255,0.4980392156862745,0.4823529411764706,0.5098039215686274,0.5058823529411764,0.5137254901960784,0.4823529411764706
233,44.33676195144653,0,0.31760099511187734,0.5126751887862799,0.4276587019010459,0.3559231511892585,0.28642312438011214,0.3883859271007409,0.2816864966367732,0.5137254901960784,0.5019607843137255,0.49019607843137253,0.48627450980392156,0.5058823529411764,0.5058823529411764,0.49411764705882355,0.4980392156862745
234,44.33863496780396,0,0.3164674414750344,0.5109233383843209,0.4241549926552482,0.3556993068025917,0.28608518583943193,0.38618727779170237,0.277289187423766,0.49019607843137253,0.4980392156862745,0.4980392156862745,0.4980392156862745,0.5098039215686274,0.48627450980392156,0.5019607843137255,0.49411764705882355
235,44.36776089668274,0,0.31481863687578027,0.5150453456615166,0.4172506220768277,0.3551709111488683,0.2861045745615997,0.3913605782297553,0.2686238986613155,0.5058823529411764,0.5019607843137255,0.5019607843137255,0.5098039215686274,0.49019607843137253,0.49411764705882355,0.49411764705882355,0.4980392156862745
236,44.397002935409546,0,0.3084295185260529,0.520610057490677,0.41343776276009614,0.3543859062870005,0.28651922304527205,0.39834453633742267,0.26383859251141917,0.5098039215686274,0.5019607843137255,0.4980392156862745,0.5215686274509804,0.4823529411764706,0.5019607843137255,0.5019607843137255,0.5019607843137255
237,44.39891695976257,0,0.30626546380857544,0.5190643071360074,0.4109645558612149,0.3536592927339018,0.2869077815134589,0.3964045516529769,0.2607346090701083,0.49019607843137253,0.49411764705882355,0.49019607843137253,0.5058823529411764,0.5058823529411764,0.5019607843137255,0.48627450980392156,0.5019607843137255
238,44.457893013954155,0,0.3061624137849308,0.5147361977010525,0.4110676058848596,0.35296313960497383,0.2872627911353375,0.3909725839415986,0.2608639413824047,0.4980392156862745,0.4980392156862745,0.5137254901960784,0.5098039215686274,0.5058823529411764,0.4980392156862745,0.49411764705882355,0.5058823529411764
239,44.45997893810272,0,0.3080173184314743,0.5197856594119897,0.4122011582554206,0.35214182062002947,0.28778218904463404,0.39730988048778415,0.2622865994663975,0.4980392156862745,0.4980392156862745,0.4980392156862745,0.47843137254901963,0.4823529411764706,0.49411764705882355,0.5019607843137255,0.5058823529411764
240,44.488287925720215,0,0.30296785461006714,0.5457543307950079,0.41900247669972657,0.35023673033802066,0.2895299101804467,0.4299017052971814,0.27082255326781907,0.49411764705882355,0.4823529411764706,0.4823529411764706,0.4980392156862745,0.5294117647058824,0.4980392156862745,0.5019607843137255,0.4980392156862745
241,44.517151951789856,0,0.31059357535400023,0.5525556492393139,0.4328112178565675,0.3498477268827677,0.2897717368123044,0.43843765909860305,0.2881531307927201,0.48627450980392156,0.4980392156862745,0.4980392156862745,0.5176470588235295,0.5058823529411764,0.49411764705882355,0.4980392156862745,0.4980392156862745
242,44.51938498020172,0,0.3185284482793371,0.5533800620912903,0.4454864045323776,0.3498666653204042,0.2894664200615447,0.43947233348936926,0.3040610475848959,0.4980392156862745,0.49019607843137253,0.49411764705882355,0.5019607843137255,0.48627450980392156,0.5058823529411764,0.5098039215686274,0.4980392156862745
243,44.54753398895264,0,0.32244435867494825,0.5556471499486534,0.4629018965167813,0.35021530474053225,0.28873424946758425,0.44231762846749456,0.32591825604017033,0.5019607843137255,0.5019607843137255,0.4980392156862745,0.48627450980392156,0.5137254901960784,0.49019607843137253,0.5019607843137255,0.49411764705882355
244,44.57648897171021,0,0.32223825757242397,0.5678070865062402,0.4826875517078313,0.35091543096826516,0.28757350070554155,0.45757888369818833,0.3507501235706568,0.5058823529411764,0.48627450980392156,0.49019607843137253,0.49411764705882355,0.5019607843137255,0.5019607843137255,0.5098039215686274,0.5058823529411764
245,44.578964948654175,0,0.32491756557382945,0.5681162492399934,0.49330173791074833,0.3520450359331426,0.28564831184104517,0.45796689652747263,0.3640713941169049,0.4980392156862745,0.5176470588235295,0.5058823529411764,0.4823529411764706,0.49019607843137253,0.4980392156862745,0.49411764705882355,0.49411764705882355
246,44.637478947639465,0,0.3270816213465418,0.5699711412237175,0.5041220114981354,0.35345218833686626,0.2830135460711254,0.46029486755387744,0.3776513133953505,0.5019607843137255,0.47843137254901963,0.5098039215686274,0.5058823529411764,0.49019607843137253,0.49411764705882355,0.49411764705882355,0.48627450980392156
247,44.64003801345825,0,0.32337181120926695,0.5687345536028011,0.5093775795877716,0.35502258212681953,0.2797815202502634,0.4587428956987162,0.3842472825123264,0.48627450980392156,0.4823529411764706,0.5176470588235295,0.5019607843137255,0.49411764705882355,0.49019607843137253,0.49411764705882355,0.5019607843137255
248,44.668818950653076,0,0.3205894529731698,0.5457543307950079,0.4971145972274799,0.357982063964597,0.2715368634582854,0.4299017052971814,0.3688567002668013,0.5058823529411764,0.592156862745098,0.4823529411764706,0.49411764705882355,0.5058823529411764,0.4980392156862745,0.4980392156862745,0.5058823529411764
249,44.69699990749359,0,0.3205894529731698,0.5394682666898649,0.4839241604334466,0.3590726954789311,0.26708641007566414,0.42201241835470676,0.3523021219131436,0.5058823529411764,0.49411764705882355,0.5098039215686274,0.5098039215686274,0.4980392156862745,0.5058823529411764,0.5058823529411764,0.49411764705882355
250,44.698974013328545,0,0.3130667822528814,0.5331821962533124,0.4839241604334466,0.3599154003303759,0.26267401368212856,0.4141231234660346,0.3523021219131436,0.4980392156862745,0.49019607843137253,0.5019607843137255,0.5098039215686274,0.47843137254901963,0.5019607843137255,0.5019607843137255,0.5019607843137255
251,44.727844953536994,0,0.3097691730543731,0.517827698410392,0.4884583720261606,0.3605963100035558,0.25769563082271035,0.3948525533104902,0.35799275689784715,0.49019607843137253,0.49411764705882355,0.49019607843137253,0.47843137254901963,0.5098039215686274,0.48627450980392156,0.49411764705882355,0.4980392156862745
252,44.75690293312073,0,0.31347898361374193,0.49938170618954175,0.48557296503270075,0.3608549587357534,0.25219896252166096,0.37170202173225186,0.3543714442073508,0.5058823529411764,0.5019607843137255,0.4823529411764706,0.4980392156862745,0.49411764705882355,0.5058823529411764,0.4980392156862745,0.49411764705882355
253,44.759089946746826,0,0.3142003356786774,0.4894888785940168,0.4834089103152234,0.3604381541837964,0.2466390795698934,0.3592860879670086,0.3516554603516617,0.5058823529411764,0.49411764705882355,0.5019607843137255,0.4980392156862745,0.5098039215686274,0.5058823529411764,0.49411764705882355,0.4980392156862745
254,44.78803598880768,0,0.3167765928122503,0.48773701975017825,0.4661995057152896,0.3593372614796155,0.2411255653299113,0.3570874280630399,0.3300569006285847,0.49019607843137253,0.5019607843137255,0.49411764705882355,0.4980392156862745,0.49411764705882355,0.5058823529411764,0.4980392156862745,0.49019607843137253
255,44.8171569108963,0,0.3226504597774725,0.4882522698684015,0.4492992638491091,0.35765630429611994,0.23564514965170638,0.35773408962452186,0.3088463537347922,0.48627450980392156,0.4980392156862745,0.5098039215686274,0.5058823529411764,0.49411764705882355,0.48627450980392156,0.5019607843137255,0.5019607843137255
256,44.81927299499512,0,0.3282151747723378,0.4823784100787769,0.4368301772205884,0.3555543151835391,0.2300998320801575,0.35036213722869786,0.29319710156720924,0.49019607843137253,0.49411764705882355,0.4980392156862745,0.5098039215686274,0.4980392156862745,0.5019607843137255,0.49411764705882355,0.5019607843137255
257,44.84790599346161,0,0.3361500468956961,0.46764221448819426,0.4268342996014188,0.35305823969796735,0.22426168653175896,0.33186756359566427,0.2806518354896696,0.4980392156862745,0.49411764705882355,0.48627450980392156,0.5019607843137255,0.4980392156862745,0.5019607843137255,0.49411764705882355,0.5058823529411764
258,44.907185912132256,0,0.35593570183348966,0.4616652962330455,0.4193116288811304,0.35001863899842334,0.2187327328298211,0.3243662682926137,0.27121055285344076,0.5019607843137255,0.5137254901960784,0.4980392156862745,0.4980392156862745,0.49019607843137253,0.4980392156862745,0.5137254901960784,0.4980392156862745
259,44.90965795516968,0,0.37551525697725036,0.4684666146773515,0.41261336046046904,0.34653172564556584,0.21401346752825945,0.33290222209403536,0.2628039313643155,0.5098039215686274,0.5058823529411764,0.5019607843137255,0.47058823529411764,0.5058823529411764,0.5019607843137255,0.5137254901960784,0.49411764705882355
260,44.91176295280457,0,0.3908697484887611,0.47413438708250605,0.3964344624283915,0.3428422716618333,0.2097931466233469,0.3400155257576618,0.24249870271040005,0.5019607843137255,0.4823529411764706,0.47843137254901963,0.49019607843137253,0.49019607843137253,0.4823529411764706,0.47843137254901963,0.49411764705882355
261,44.93727195262909,0,0.4139530128783194,0.4802143490298898,0.3953009121683003,0.3392886870622975,0.2057522137782071,0.3476461454268111,0.24107604727513984,0.4823529411764706,0.47843137254901963,0.4745098039215686,0.47058823529411764,0.47843137254901963,0.49019607843137253,0.49411764705882355,0.5058823529411764
262,44.9395250082016,0,0.4268342996014188,0.5041220114981354,0.39396125763998013,0.3356465473878659,0.20212995813892773,0.3776513133953505,0.2393947219178218,0.48627450980392156,0.49019607843137253,0.4588235294117647,0.49019607843137253,0.4823529411764706,0.5058823529411764,0.49411764705882355,0.49411764705882355
263,44.96796798706055,0,0.4276587019010459,0.5203009158616226,0.3870568891720295,0.3322164546453833,0.19842737836111016,0.3979565499954637,0.2307294358041038,0.5019607843137255,0.49411764705882355,0.5019607843137255,0.4745098039215686,0.48627450980392156,0.4823529411764706,0.4823529411764706,0.5137254901960784
264,44.997214913368225,0,0.41003710353794315,0.5327699940482639,0.3992168215086766,0.3290375623992053,0.19428982637486708,0.4136057915681165,0.24599068573733257,0.5137254901960784,0.5058823529411764,0.5411764705882353,0.5058823529411764,0.5019607843137255,0.5137254901960784,0.5098039215686274,0.5058823529411764
265,44.999151945114136,0,0.4051937397638253,0.5381286100510749,0.4041632353064391,0.3261721105664767,0.19003750083471496,0.4203310903486562,0.2521986526199542,0.48627450980392156,0.4980392156862745,0.5137254901960784,0.5058823529411764,0.5137254901960784,0.4980392156862745,0.5019607843137255,0.5019607843137255
266,45.027859926223755,0,0.41755977425823154,0.5214344640112439,0.39818632127223,0.3236374324529168,0.1865136840157915,0.39937920278199135,0.24469736261436872,0.4666666666666667,0.47843137254901963,0.48627450980392156,0.5176470588235295,0.5019607843137255,0.5019607843137255,0.5058823529411764,0.5019607843137255
267,45.0867919921875,0,0.4359027248973167,0.5044311657900091,0.4037510352118605,0.3221008762211183,0.1837491515414393,0.37803931562970483,0.25168132337076865,0.5137254901960784,0.4823529411764706,0.49411764705882355,0.49019607843137253,0.49019607843137253,0.5019607843137255,0.5058823529411764,0.49411764705882355
268,45.11800491809845,0,0.45012366403826637,0.505049468042347,0.4034418851409265,0.32145683690484766,0.18268240762148633,0.3788153121522156,0.2512933264338795,0.5098039215686274,0.5058823529411764,0.49019607843137253,0.5176470588235295,0.5215686274509804,0.49411764705882355,0.49019607843137253,0.4980392156862745
269,45.11976099014282,0,0.44424979580676227,0.5173124482921687,0.4110676058848596,0.3231020865250174,0.18379754256051645,0.3942058917490083,0.2608639413824047,0.48627450980392156,0.49019607843137253,0.49411764705882355,0.5058823529411764,0.49411764705882355,0.5019607843137255,0.49411764705882355,0.48627450980392156
270,45.14825797080994,0,0.42456719486029665,0.4839241604334466,0.4414674409474169,0.32738700471903226,0.18591541347338675,0.3523021219131436,0.2990170715129417,0.5058823529411764,0.5058823529411764,0.4980392156862745,0.48627450980392156,0.5019607843137255,0.5019607843137255,0.5058823529411764,0.5019607843137255
271,45.177238941192634,0,0.4145713130201873,0.4636232551241734,0.4650659512342587,0.3303452045702619,0.18751585448523508,0.3268235928211752,0.3286342398958595,0.49019607843137253,0.5019607843137255,0.5098039215686274,0.5137254901960784,0.4980392156862745,0.4980392156862745,0.49411764705882355,0.5058823529411764
272,45.180052995681756,0,0.4137469128310301,0.4587798892395856,0.4761953875553991,0.33317958147287136,0.18987681017791794,0.3207449556021174,0.34260217200358944,0.4980392156862745,0.49411764705882355,0.5058823529411764,0.5098039215686274,0.49019607843137253,0.5019607843137255,0.4980392156862745,0.4980392156862745
273,45.20849299430847,0,0.4072547444576581,0.46115004611482224,0.48309975602334965,0.3357555957063971,0.1928984657145266,0.32371960673113187,0.3512674581173075,0.4980392156862745,0.5019607843137255,0.4980392156862745,0.5058823529411764,0.4745098039215686,0.4980392156862745,0.4980392156862745,0.5137254901960784
274,45.23725295066834,0,0.40529678978746997,0.4671269622595012,0.4820692536764333,0.33799197356168675,0.19626184483061027,0.3312208993854498,0.3499741323456111,0.5019607843137255,0.5098039215686274,0.4823529411764706,0.5019607843137255,0.4980392156862745,0.49019607843137253,0.49019607843137253,0.5058823529411764
275,45.23998999595642,0,0.4034418851409265,0.4664056142044585,0.47568013743717574,0.33994876975154226,0.1996083939001565,0.3303155758481077,0.34195551044210754,0.4980392156862745,0.5058823529411764,0.5254901960784314,0.49019607843137253,0.5176470588235295,0.4980392156862745,0.5058823529411764,0.4980392156862745
276,45.26865899562836,0,0.39993817589512887,0.45826463701089254,0.46743611444090494,0.34162718944926773,0.20285726830868359,0.320098291391903,0.3316088989710715,0.4980392156862745,0.5019607843137255,0.4980392156862745,0.4980392156862745,0.4980392156862745,0.4980392156862745,0.4980392156862745,0.4980392156862745
277,45.29665195941925,0,0.3861294368487578,0.456718882435283,0.5015457609070192,0.3430699381695504,0.2063176704975824,0.31815830140999213,0.37441800558794097,0.5058823529411764,0.49411764705882355,0.4980392156862745,0.4980392156862745,0.4980392156862745,0.4980392156862745,0.5019607843137255,0.49019607843137253
278,45.29871392250061,0,0.36366447365630233,0.4559975364907103,0.5281327324319053,0.34397543387450746,0.20950250649957247,0.3172529805213825,0.40778582427111654,0.5058823529411764,0.4823529411764706,0.49019607843137253,0.49411764705882355,0.48627450980392156,0.49411764705882355,0.4980392156862745,0.49411764705882355
279,45.3281079530716,0,0.35645095406218286,0.44249794329433334,0.5258656255803132,0.3439410135951945,0.21215329710133862,0.3003103972846381,0.4049405054543985,0.4980392156862745,0.47058823529411764,0.5019607843137255,0.49019607843137253,0.49019607843137253,0.49411764705882355,0.49411764705882355,0.49019607843137253
280,45.356838941574104,0,0.36964139085621617,0.44074608867143455,0.4945383381944842,0.34318241659671656,0.21461089709808387,0.29811174267813445,0.3656233818644616,0.49019607843137253,0.5490196078431373,0.49411764705882355,0.49019607843137253,0.48627450980392156,0.5019607843137255,0.5058823529411764,0.5019607843137255
281,45.359050989151,0,0.3630461724591995,0.4668178100780973,0.49464138821812875,0.34196700594131635,0.21776252064279772,0.33083289979982816,0.3657527141767579,0.5058823529411764,0.5254901960784314,0.5294117647058824,0.49411764705882355,0.4980392156862745,0.49411764705882355,0.5019607843137255,0.4980392156862745
282,45.38836395740509,0,0.33367683995460545,0.4835119582283981,0.5073165748939389,0.34064208343919106,0.22093129473068593,0.3517847900152255,0.3816606309689337,0.4980392156862745,0.4666666666666667,0.48627450980392156,0.5098039215686274,0.5098039215686274,0.5019607843137255,0.4980392156862745,0.49019607843137253
283,45.41737496852875,0,0.32512366625425976,0.4724855824832519,0.5066982726416012,0.3391672691628204,0.22309638724721845,0.3379462034634546,0.3808846344464228,0.5019607843137255,0.47843137254901963,0.49019607843137253,0.5058823529411764,0.5058823529411764,0.49411764705882355,0.5019607843137255,0.5058823529411764
284,45.41981589794159,0,0.33017313049776087,0.4512572185192973,0.5087592836668435,0.3375371226155742,0.22455217832651136,0.3113036729658886,0.3834712939360132,0.49411764705882355,0.5098039215686274,0.4980392156862745,0.49411764705882355,0.49019607843137253,0.49019607843137253,0.49411764705882355,0.5019607843137255
285,45.44819092750549,0,0.3256389176387649,0.43487222255040026,0.5182399048363803,0.33552179208539273,0.22618682242160462,0.29073978233611286,0.3953698905058733,0.5019607843137255,0.48627450980392156,0.5137254901960784,0.5058823529411764,0.4980392156862745,0.5058823529411764,0.4980392156862745,0.5098039215686274
286,45.47720396518707,0,0.3238870621716782,0.43250206567516375,0.5169002524185299,0.3328080967346152,0.22817615829067203,0.2877651312070984,0.3936885677972878,0.49411764705882355,0.4823529411764706,0.4980392156862745,0.5137254901960784,0.49411764705882355,0.5019607843137255,0.5098039215686274,0.5058823529411764
287,45.479702949523926,0,0.31749794487718574,0.44157049097106166,0.5227741122081544,0.32949645531116867,0.23031116385432146,0.29914640382523805,0.4010605201931118,0.5019607843137255,0.4823529411764706,0.4823529411764706,0.5019607843137255,0.49411764705882355,0.5019607843137255,0.5098039215686274,0.49411764705882355
288,45.50844693183899,0,0.3073990161791365,0.45888293926323037,0.5342126986002287,0.32586469866828066,0.23190755495412138,0.32087428791441375,0.41541644923773097,0.5176470588235295,0.5215686274509804,0.49411764705882355,0.4980392156862745,0.48627450980392156,0.4980392156862745,0.49019607843137253,0.5058823529411764
289,45.53735196590424,0,0.30863562068381206,0.4562036323170598,0.517827698410392,0.32202258763353453,0.23266962179222234,0.3175116398485102,0.3948525533104902,0.49411764705882355,0.5372549019607843,0.4980392156862745,0.49019607843137253,0.5098039215686274,0.4980392156862745,0.49411764705882355,0.5098039215686274
290,45.539840936660774,0,0.3147155868521356,0.4508450142037789,0.5008244022996271,0.3178935579442279,0.23286081260417812,0.31078633841923803,0.3735126688069361,0.4823529411764706,0.5411764705882353,0.48627450980392156,0.5019607843137255,0.5098039215686274,0.49411764705882355,0.49411764705882355,0.48627450980392156
291,45.56888997554779,0,0.3111088275826933,0.438066781725264,0.4935078358475678,0.31354804734470615,0.23282986216448812,0.2947490946122309,0.36433005609276514,0.5215686274509804,0.4588235294117647,0.5019607843137255,0.5058823529411764,0.5019607843137255,0.5058823529411764,0.5019607843137255,0.48627450980392156
292,45.596929907798774,0,0.3084295185260529,0.4255976950967432,0.4839241604334466,0.3087756590633907,0.23311931830481872,0.2790998424446479,0.3523021219131436,0.49019607843137253,0.48627450980392156,0.5019607843137255,0.49411764705882355,0.5019607843137255,0.5098039215686274,0.4823529411764706,0.5019607843137255
293,45.599050998687744,0,0.30430750913838733,0.42240314014281927,0.4880461698211121,0.3035861563284115,0.2340568186450153,0.27509053546599493,0.35747542499992907,0.4392156862745098,0.5215686274509804,0.5098039215686274,0.49411764705882355,0.49019607843137253,0.47843137254901963,0.4627450980392157,0.4745098039215686
294,45.62787294387818,0,0.2877164131222011,0.4329142678802122,0.49835119962168556,0.2980626272307086,0.2353850944425319,0.28828246310501654,0.3704086906630904,0.6,0.47843137254901963,0.4745098039215686,0.48627450980392156,0.49411764705882355,0.4980392156862745,0.5098039215686274,0.5372549019607843
295,45.65732991695404,0,0.28215169496163095,0.43703627726787764,0.4937139337843872,0.2923570719356265,0.23690541659261363,0.29345576619180197,0.3645887180686255,0.5411764705882353,0.43529411764705883,0.49411764705882355,0.5137254901960784,0.5098039215686274,0.5098039215686274,0.5058823529411764,0.49019607843137253
296,45.6598699092865,0,0.2810181404806,0.4416735409947063,0.4859851609063396,0.2866181717466412,0.23845757385905259,0.29927573613753444,0.3548887681590712,0.49019607843137253,0.5254901960784314,0.49019607843137253,0.5058823529411764,0.5058823529411764,0.48627450980392156,0.49019607843137253,0.49411764705882355
297,45.68806898593903,0,0.27967849017321955,0.4551731236387337,0.4717642238758598,0.28079729593438124,0.23991202997714703,0.31621830613061624,0.33704086668244976,0.4745098039215686,0.4980392156862745,0.5058823529411764,0.4980392156862745,0.5137254901960784,0.5098039215686274,0.5058823529411764,0.5098039215686274
298,45.71790099143982,0,0.2831821994190171,0.4548639820096793,0.45816159120818767,0.2750578050780404,0.24109194496782443,0.3158303197886572,0.3199689643770717,0.49411764705882355,0.5215686274509804,0.49411764705882355,0.49411764705882355,0.4980392156862745,0.5019607843137255,0.5058823529411764,0.49411764705882355
299,45.720457911491394,0,0.2813272947724737,0.4401277864190967,0.45342127323677467,0.269510969782748,0.24230318386947947,0.2973357461556237,0.3140196568215777,0.48627450980392156,0.24705882352941178,0.5176470588235295,0.4980392156862745,0.47058823529411764,0.5098039215686274,0.49411764705882355,0.49411764705882355
300,45.74784195423126,0,0.26988871260133923,0.4105523536561664,0.4599134416101467,0.2639970211506299,0.24404813972852393,0.2602172771721903,0.3221676136861102,0.4823529411764706,0.6549019607843137,0.4745098039215686,0.4980392156862745,0.4980392156862745,0.4980392156862745,0.5098039215686274,0.5176470588235295
301,45.77713191509247,0,0.2527823643564598,0.3905605984178272,0.45908903720004973,0.25813148241033806,0.24641074823030962,0.23512674501711098,0.3211329498902741,0.5294117647058824,0.5490196078431373,0.49411764705882355,0.5019607843137255,0.4980392156862745,0.5019607843137255,0.5058823529411764,0.4980392156862745
302,45.77984595298767,0,0.24804204849551673,0.38375927997352116,0.45847073283724205,0.2515317441469626,0.24952718336327492,0.2265907912156894,0.32035695071903064,0.4627450980392157,0.5098039215686274,0.5019607843137255,0.5058823529411764,0.5019607843137255,0.4980392156862745,0.5098039215686274,0.5019607843137255
303,45.83787989616394,0,0.23773702502635288,0.3825226754688456,0.4538334754418232,0.24393843982178873,0.25326666660715846,0.22503879817066771,0.31453698871949576,0.5058823529411764,0.5058823529411764,0.5098039215686274,0.5215686274509804,0.49411764705882355,0.49411764705882355,0.4980392156862745,0.5019607843137255
304,45.83984100818634,0,0.21846661995352615,0.38777824144801193,0.44744435709209585,0.23533465992630279,0.2574659592244631,0.23163476463891103,0.3065183641672597,0.4588235294117647,0.5490196078431373,0.49019607843137253,0.49411764705882355,0.4980392156862745,0.5019607843137255,0.5058823529411764,0.42745098039215684
305,45.867811918258674,0,0.16354081805991547,0.4066364443157902,0.4378606816779747,0.2158877795381931,0.2670865425122909,0.25530263870999753,0.29449042998763814,0.5137254901960784,0.5215686274509804,0.5098039215686274,0.4823529411764706,0.4980392156862745,0.4980392156862745,0.4980392156862745,0.4980392156862745
306,45.89711093902588,0,0.12500000791426205,0.41446826510701257,0.4573371846876208,0.2057686465148641,0.27218169209685195,0.2651319182831155,0.31893429793250294,0.49411764705882355,0.4823529411764706,0.5098039215686274,0.49411764705882355,0.5019607843137255,0.49411764705882355,0.5019607843137255,0.4980392156862745
307,45.89961993694306,0,0.0841920888065468,0.42858615422431756,0.4691879732847436,0.19614859694664233,0.2771577864513586,0.2828504900961732,0.33380755887504016,0.5019607843137255,0.4666666666666667,0.49019607843137253,0.5058823529411764,0.5019607843137255,0.5019607843137255,0.4823529411764706,0.5254901960784314
308,45.927870988845825,0,0.07780297889869894,0.43167766337553665,0.4896949744203663,0.18751565688978783,0.2818450947948663,0.2867304700599948,0.3595447472941363,0.4745098039215686,0.49019607843137253,0.48627450980392156,0.5176470588235295,0.4980392156862745,0.49019607843137253,0.49411764705882355,0.5686274509803921
309,46.01732397079468,0,0.08450125154030003,0.43054410889450573,0.513705697464606,0.1804675467449576,0.2860354029114068,0.28530780932726957,0.38967926081863485,0.47843137254901963,0.4980392156862745,0.49019607843137253,0.5490196078431373,0.5098039215686274,0.4980392156862745,0.5058823529411764,0.34901960784313724
310,46.0769909620285,0,0.10645096144882739,0.42188788580365627,0.5254534254857347,0.17527790812999924,0.2897183727978898,0.27444386860704795,0.404423176205213,0.5019607843137255,0.43529411764705883,0.396078431372549,0.48627450980392156,0.5019607843137255,0.49019607843137253,0.5058823529411764,0.5058823529411764
311,46.080983996391296,0,0.12912201941239745,0.36871393853294443,0.5116446864393637,0.17952979530491658,0.29942027217459083,0.20770822594323174,0.38709260132904444,0.5019607843137255,0.47843137254901963,0.4392156862745098,0.5176470588235295,0.48627450980392156,0.5058823529411764,0.4980392156862745,0.49411764705882355
312,46.108120918273926,0,0.13386233527334052,0.3238870621716782,0.5174155025367532,0.18127595872112445,0.29926053241277445,0.1514485244140154,0.3943352293587697,0.5058823529411764,0.5019607843137255,0.5176470588235295,0.5098039215686274,0.5058823529411764,0.5019607843137255,0.5058823529411764,0.49019607843137253
313,46.137141942977905,0,0.14076670163082125,0.35150454026442035,0.5119538386207674,0.1809685500014074,0.29819097421450136,0.18610967416635243,0.38748060091466613,0.4823529411764706,0.5058823529411764,0.5176470588235295,0.49411764705882355,0.4980392156862745,0.49411764705882355,0.49411764705882355,0.5058823529411764
314,46.167523980140686,0,0.14942292683214056,0.3881904415425906,0.5011335565915008,0.18113047549731298,0.29672254868100895,0.23215209388809657,0.37390067104129043,0.49411764705882355,0.5098039215686274,0.49019607843137253,0.5058823529411764,0.49411764705882355,0.4980392156862745,0.4980392156862745,0.49019607843137253
315,46.16919100284576,0,0.15375103837756526,0.4051937397638253,0.49402308807626094,0.18232673899495272,0.29504051081463856,0.2534919810403831,0.3649767203029796,0.5058823529411764,0.5372549019607843,0.5019607843137255,0.5176470588235295,0.49411764705882355,0.49411764705882355,0.4980392156862745,0.4980392156862745
316,46.197883009910576,0,0.14942292683214056,0.40581203990569326,0.49330173791074833,0.1844447161219977,0.29318252294332786,0.2542679749141614,0.3640713941169049,0.4980392156862745,0.4745098039215686,0.49019607843137253,0.4980392156862745,0.5019607843137255,0.5058823529411764,0.4980392156862745,0.49411764705882355
317,46.200339913368225,0,0.14849546817745915,0.39220940301708135,0.49051937883046326,0.18717629227150995,0.29109295108887845,0.2371960673113182,0.36057941108997243,0.5137254901960784,0.49411764705882355,0.5058823529411764,0.5019607843137255,0.5098039215686274,0.4980392156862745,0.5058823529411764,0.5019607843137255
318,46.2578159570694,0,0.14880462457980279,0.382419625445201,0.49031327667270413,0.19021551526179423,0.2887648290847191,0.22490946585837132,0.36032074381664714,0.4980392156862745,0.4980392156862745,0.5058823529411764,0.4980392156862745,0.5098039215686274,0.5098039215686274,0.5058823529411764,0.49411764705882355
319,46.25913393497467,0,0.14406431082932958,0.3757213570245397,0.49185903124831365,0.19335227835748484,0.28622919742744607,0.2165028443692461,0.36226073379855794,0.5058823529411764,0.49411764705882355,0.5019607843137255,0.49411764705882355,0.5058823529411764,0.49019607843137253,0.5058823529411764,0.4980392156862745
320,46.2880209684372,0,0.14200330402502695,0.38870569377128367,0.5004122064259883,0.19944740234734334,0.28053975966984906,0.23279875809831102,0.3729953448552157,0.5019607843137255,0.48627450980392156,0.5137254901960784,0.49019607843137253,0.4666666666666667,0.4823529411764706,0.48627450980392156,0.49411764705882355
321,46.317384004592896,0,0.1426216083878346,0.40436933746419823,0.4989695018740234,0.20246887141318143,0.277478725426619,0.2524573198932795,0.3711846871856012,0.5058823529411764,0.5058823529411764,0.5058823529411764,0.47843137254901963,0.5098039215686274,0.5058823529411764,0.49411764705882355,0.5058823529411764
322,46.31977391242981,0,0.1464344677045662,0.4133347127364515,0.4914468248223253,0.20584759198811703,0.2740355135118826,0.2637092601991228,0.36174339660317484,0.49019607843137253,0.4745098039215686,0.49019607843137253,0.5019607843137255,0.4823529411764706,0.4745098039215686,0.48627450980392156,0.49019607843137253
323,46.34795093536377,0,0.15529679506364463,0.415189617382995,0.468363560432767,0.20964761466285675,0.2705300643287341,0.2660372471179227,0.3327728844842739,0.48627450980392156,0.5019607843137255,0.5137254901960784,0.5098039215686274,0.5215686274509804,0.5176470588235295,0.5098039215686274,0.5137254901960784
324,46.37717390060425,0,0.15529679506364463,0.4347691725267556,0.46403545099781224,0.21363935789605962,0.2670998603394849,0.2906104500238165,0.3273409167728957,0.48627450980392156,0.5058823529411764,0.48627450980392156,0.4823529411764706,0.49411764705882355,0.48627450980392156,0.4823529411764706,0.48627450980392156
325,46.379768013954155,0,0.1582852499702793,0.4463108047215348,0.46094395028847274,0.21819902116989678,0.2634804097079618,0.30509570608326697,0.3234609474040041,0.5058823529411764,0.5019607843137255,0.5019607843137255,0.5019607843137255,0.5254901960784314,0.5215686274509804,0.5098039215686274,0.5019607843137255
326,46.40826499462128,0,0.1656018185328085,0.4599134416101467,0.46743611444090494,0.22335674176316958,0.2596663911304987,0.3221676136861102,0.3316088989710715,0.5098039215686274,0.5019607843137255,0.5098039215686274,0.5058823529411764,0.5529411764705883,0.5333333333333333,0.5176470588235295,0.5019607843137255
327,46.437466979026794,0,0.1746702459391763,0.45754328684538,0.47351608271969836,0.2290315055425139,0.2554151727605469,0.31919296520582824,0.3392395265864184,0.4980392156862745,0.49411764705882355,0.4666666666666667,0.49411764705882355,0.49411764705882355,0.48627450980392156,0.48627450980392156,0.5019607843137255
328,46.49776196479797,0,0.17868920741366703,0.44023083644274136,0.4823784100787769,0.23512596364101268,0.25072652415837565,0.29746507846792003,0.35036213722869786,0.5215686274509804,0.4980392156862745,0.4823529411764706,0.4823529411764706,0.4627450980392157,0.49019607843137253,0.5019607843137255,0.5019607843137255
329,46.4995139837265,0,0.18816983280414354,0.4317807133991813,0.49103462894868655,0.2411385096858176,0.24568118663789765,0.2868598023722912,0.36122607265145434,0.5019607843137255,0.5098039215686274,0.5058823529411764,0.5019607843137255,0.5019607843137255,0.4980392156862745,0.49411764705882355,0.4980392156862745
330,46.527812004089355,0,0.24340478898962795,0.4418796410419955,0.4712489737576366,0.2575785806831862,0.23216573221192743,0.29953440076212723,0.3363942051209678,0.49019607843137253,0.5137254901960784,0.5098039215686274,0.5137254901960784,0.49411764705882355,0.49019607843137253,0.4980392156862745,0.49019607843137253
331,46.557285904884345,0,0.25515252123169635,0.45537923212790254,0.4679513645591283,0.26297889868948476,0.22890078529436836,0.31647698135013913,0.3322555605325534,0.49019607843137253,0.4980392156862745,0.48627450980392156,0.5098039215686274,0.49411764705882355,0.5019607843137255,0.4980392156862745,0.5019607843137255
332,46.559725999832146,0,0.26638500335554155,0.4524938188030331,0.4647568096052043,0.2686713904356965,0.22623454198698373,0.3128556607134452,0.32824625355390047,0.49411764705882355,0.47843137254901963,0.5058823529411764,0.5137254901960784,0.5098039215686274,0.5098039215686274,0.5019607843137255,0.5098039215686274
333,46.5878849029541,0,0.27370157191807076,0.45022670984097124,0.4672300122831458,0.27437881573594947,0.22431109863722895,0.3100103392479946,0.3313502316977462,0.5019607843137255,0.4980392156862745,0.49019607843137253,0.5058823529411764,0.49411764705882355,0.4980392156862745,0.5098039215686274,0.5019607843137255
334,46.677172899246216,0,0.28452185394733737,0.4566158324116384,0.4776380921073639,0.2800676522312607,0.22295224587131002,0.3180289690976958,0.3444128296732039,0.5019607843137255,0.48627450980392156,0.49411764705882355,0.4823529411764706,0.49411764705882355,0.49019607843137253,0.5058823529411764,0.4980392156862745
335,46.6792539358139,0,0.2950329816847303,0.4543487318914561,0.483305856070639,0.2858534561760037,0.222143150787022,0.31518365822717526,0.35152612274190026,0.5137254901960784,0.49411764705882355,0.5058823529411764,0.4980392156862745,0.49019607843137253,0.4980392156862745,0.49411764705882355,0.5019607843137255
336,46.70818495750427,0,0.3237840121480335,0.4481657093680783,0.5233924165709621,0.30774621856811674,0.2221931694522429,0.3074236930020669,0.4018365193643552,0.5137254901960784,0.5098039215686274,0.5372549019607843,0.5058823529411764,0.5019607843137255,0.4980392156862745,0.49019607843137253,0.5019607843137255
337,46.73789393901825,0,0.3353256445538596,0.4508450142037789,0.5241137751783542,0.3126151028244725,0.22279237102413427,0.31078633841923803,0.40274185614536,0.4666666666666667,0.5137254901960784,0.49411764705882355,0.49411764705882355,0.5058823529411764,0.4980392156862745,0.4980392156862745,0.48627450980392156
338,46.74063301086426,0,0.33429514178484926,0.4751648873189525,0.5299876349679788,0.3170760107544156,0.22340629425146397,0.3413088488806256,0.41011380854118407,0.48627450980392156,0.5137254901960784,0.49019607843137253,0.48627450980392156,0.47843137254901963,0.49019607843137253,0.5019607843137255,0.5058823529411764
339,46.76778495311737,0,0.3328524376549784,0.4902102266490595,0.5246290252965775,0.32134490146785155,0.22377844911905181,0.36019141150435074,0.40338851770684186,0.4980392156862745,0.5137254901960784,0.5254901960784314,0.5098039215686274,0.49411764705882355,0.5098039215686274,0.5098039215686274,0.5098039215686274
340,46.7970529794693,0,0.3354286948940748,0.49732069727476924,0.5241137751783542,0.3255770728021328,0.22345388667768135,0.369115364891394,0.40274185614536,0.996078431372549,0.47843137254901963,0.4392156862745098,0.4666666666666667,0.5137254901960784,0.4549019607843137,0.5058823529411764,0.5686274509803921
341,46.828063011169434,0,0.32831822500702945,0.50556472027104,0.5332852441664871,0.3297627191494089,0.2223702504659763,0.37946197636243006,0.41425245312959846,0.44313725490196076,0.12549019607843137,0.5568627450980392,0.5254901960784314,0.4823529411764706,0.5294117647058824,0.49019607843137253,0.45098039215686275
342,46.82997989654541,0,0.32481451533913785,0.5023701610961764,0.5362737054045313,0.33388413373267284,0.22031683116191872,0.37545266408631206,0.4180031034298562,0.28627450980392155,0.6627450980392157,0.4823529411764706,0.47058823529411764,0.4980392156862745,0.49411764705882355,0.4980392156862745,0.49019607843137253
343,46.887946009635925,0,0.32811212453764615,0.5060799703892633,0.5352432030576151,0.3378821941929755,0.21744069963960258,0.38010863792391203,0.41670977765815986,0.39215686274509803,0.6274509803921569,0.5176470588235295,0.5254901960784314,0.4980392156862745,0.5058823529411764,0.5019607843137255,0.49411764705882355
344,46.946921944618225,0,0.33398599086972736,0.4965993471092567,0.5289571347315324,0.34185387857467875,0.21375332491091126,0.3682100387053194,0.40882048541822014,0.4588235294117647,0.5215686274509804,0.5058823529411764,0.4823529411764706,0.49411764705882355,0.5098039215686274,0.49019607843137253,0.47058823529411764
345,46.94863498210907,0,0.3528441935264586,0.47990519262754616,0.5177246526076871,0.3491635327812423,0.20434512759279694,0.34725814054372434,0.39472322629565887,0.49019607843137253,0.5372549019607843,0.5019607843137255,0.49411764705882355,0.49019607843137253,0.49411764705882355,0.5019607843137255,0.49411764705882355
346,46.97708201408386,0,0.37376340235435157,0.4586768413264109,0.4876339655055938,0.3584295540829903,0.18633603325968948,0.3206156259385536,0.3569580904532785,0.48627450980392156,0.5058823529411764,0.4745098039215686,0.5137254901960784,0.5137254901960784,0.49019607843137253,0.5019607843137255,0.4980392156862745
347,46.980135917663574,0,0.38715993919567415,0.44703215488704734,0.4746496372007293,0.36093513586963577,0.17967537838594466,0.3060010322693416,0.34066218731914377,0.5137254901960784,0.5137254901960784,0.5294117647058824,0.4980392156862745,0.5019607843137255,0.4980392156862745,0.5019607843137255,0.5019607843137255
348,47.007676005363464,0,0.3932399074744676,0.4314715633282473,0.4613561461621116,0.3631796453338128,0.1726913593574289,0.28647180543540207,0.32397827135572455,0.49019607843137253,0.5137254901960784,0.4666666666666667,0.47843137254901963,0.49411764705882355,0.48627450980392156,0.5058823529411764,0.5215686274509804
349,47.06713390350342,0,0.40498763971653606,0.4246702448839414,0.45919209144463413,0.36503620818701876,0.16572369598745337,0.2779358516339805,0.32126228750003544,0.4980392156862745,0.49019607843137253,0.5098039215686274,0.48627450980392156,0.5019607843137255,0.49411764705882355,0.5098039215686274,0.5137254901960784
350,47.06874489784241,0,0.4050906897401807,0.41704452202953846,0.4595012415155681,0.3666073012423618,0.15899842872683084,0.26836523403672274,0.3216502844369246,0.5098039215686274,0.4980392156862745,0.5137254901960784,0.5215686274509804,0.5058823529411764,0.49411764705882355,0.47843137254901963,0.49019607843137253
351,47.07104897499085,0,0.4152926674066396,0.40457543751148756,0.4481657093680783,0.3678377461036396,0.15240239127255556,0.25271598451787225,0.3074236930020669,0.48627450980392156,0.9254901960784314,0.5254901960784314,0.5058823529411764,0.5215686274509804,0.48627450980392156,0.5058823529411764,0.5137254901960784
352,47.12728500366211,0,0.4276587019010459,0.38582028466735396,0.4341508702744179,0.36876956756127777,0.14595260570427385,0.22917744275908214,0.2898344535013056,0.5058823529411764,0.11764705882352941,0.5450980392156862,0.5568627450980392,0.5019607843137255,0.5294117647058824,0.48627450980392156,0.4627450980392157
353,47.15705692768097,0,0.43992168637180745,0.3681986863042513,0.43013190879992713,0.36938624811917803,0.13987382280492655,0.2070615617330173,0.284790480078084,0.49411764705882355,0.2784313725490196,0.49411764705882355,0.4980392156862745,0.4980392156862745,0.5137254901960784,0.5058823529411764,0.49411764705882355
354,47.1590279340744,0,0.4552761778833182,0.3650041271293876,0.43353256802208007,0.3699220204930158,0.13020596229005316,0.20305224945689926,0.28905845697879484,0.49019607843137253,0.5411764705882353,0.45098039215686275,0.5098039215686274,0.49411764705882355,0.49019607843137253,0.4980392156862745,0.5058823529411764
355,47.16111493110657,0,0.47042457145800953,0.34274526525050336,0.4298227587289931,0.3699671284081139,0.12595490549278604,0.17511639874997517,0.2844024831411949,0.5137254901960784,0.4980392156862745,0.4823529411764706,0.49411764705882355,0.49411764705882355,0.5098039215686274,0.5137254901960784,0.5137254901960784
356,47.18784999847412,1,0.47392827859333725,0.33738665034513676,0.44899011166770536,0.36995624211738853,0.1228659642035505,0.1683911013467764,0.3084583541491705,0.49019607843137253,0.43529411764705883,0.4627450980392157,0.43137254901960786,0.5058823529411764,0.4745098039215686,0.47058823529411764,0.47058823529411764
357,47.217474937438965,1,0.49536273838364137,0.33274938742028676,0.42971970870534854,0.3698546208448899,0.12053908180621829,0.1625711324075623,0.2842731508288985,0.5058823529411764,0.47843137254901963,0.4823529411764706,0.49019607843137253,0.47843137254901963,0.4980392156862745,0.48627450980392156,0.49411764705882355
358,47.24742496013642,1,0.4971145972274799,0.35181369033535426,0.45919209144463413,0.36992225887894414,0.1193258854912187,0.18649767110324159,0.32126228750003544,0.5019607843137255,0.5098039215686274,0.48627450980392156,0.5176470588235295,0.4980392156862745,0.49411764705882355,0.49019607843137253,0.4745098039215686
359,47.24843394756317,1,0.49639323862008783,0.34542457282981487,0.45476092776509497,0.36985536513873263,0.1184696164804541,0.17847904761049851,0.31570098217889575,0.4980392156862745,0.4980392156862745,0.5450980392156862,0.5058823529411764,0.4980392156862745,0.4980392156862745,0.5058823529411764,0.5294117647058824
360,47.27740299701691,1,0.5015457609070192,0.36088211563125216,0.48464551059895916,0.3697126646733241,0.11825875353194909,0.19787894372138123,0.35320744809921834,0.48627450980392156,0.47843137254901963,0.4745098039215686,0.4549019607843137,0.49411764705882355,0.5019607843137255,0.5058823529411764,0.5137254901960784
361,47.30660200119018,1,0.4964962928646723,0.37098104327406645,0.4837180582756875,0.36953482877081784,0.118743747054328,0.21055354211121724,0.3520434546398183,0.49019607843137253,0.49019607843137253,0.5490196078431373,0.5333333333333333,0.48627450980392156,0.4823529411764706,0.49411764705882355,0.49019607843137253
362,47.30811393260956,1,0.5058738703419741,0.36603462947630394,0.4893858243494324,0.36949965360273196,0.11910011812473031,0.20434557522859562,0.3591567503572471,0.48627450980392156,0.48627450980392156,0.47843137254901963,0.5098039215686274,0.4980392156862745,0.49411764705882355,0.4980392156862745,0.4980392156862745
363,47.33714497089386,1,0.5189612528914229,0.34593982421432007,0.48155399722680037,0.36943711702754317,0.11937441556875401,0.17912571076121997,0.3493274628379316,0.5058823529411764,0.5137254901960784,0.48627450980392156,0.4980392156862745,0.4980392156862745,0.4980392156862745,0.4980392156862745,0.4980392156862745
364,47.36681091785431,1,0.5244229168074086,0.3469703269833304,0.47866859445428034,0.3694824103539188,0.12021584902858119,0.18041903706266282,0.34570615544490024,0.5098039215686274,0.5215686274509804,0.5019607843137255,0.4980392156862745,0.49411764705882355,0.5137254901960784,0.5098039215686274,0.5254901960784314
365,47.3687059879303,1,0.5173124482921687,0.37551525697725036,0.47434048290885555,0.3695993783827344,0.12196091083692709,0.21624417974465335,0.3402741850847895,0.49019607843137253,0.5176470588235295,0.5098039215686274,0.5058823529411764,0.5019607843137255,0.5137254901960784,0.4980392156862745,0.5019607843137255
366,47.427215933799744,1,0.5127782388099246,0.39509481212101105,0.469497114913798,0.3695978950925139,0.1233677321490836,0.24081738265054708,0.3341955452169991,0.4980392156862745,0.49411764705882355,0.5058823529411764,0.49411764705882355,0.48627450980392156,0.5058823529411764,0.5098039215686274,0.5019607843137255
367,47.429422974586494,1,0.5180338068995608,0.3813891230982846,0.46743611444090494,0.3694167668154646,0.12351397132116101,0.22361614008667496,0.3316088989710715,0.5058823529411764,0.4980392156862745,0.5333333333333333,0.5098039215686274,0.5137254901960784,0.5137254901960784,0.49019607843137253,0.49411764705882355
368,47.43111598491669,1,0.5140148390936604,0.3645919249243391,0.46887881688239996,0.3693544368414137,0.12343261285256726,0.20253491755898118,0.33341955399195344,0.4980392156862745,0.4980392156862745,0.48627450980392156,0.4823529411764706,0.5058823529411764,0.5019607843137255,0.4980392156862745,0.5058823529411764
369,47.458297967910774,1,0.5121599386680568,0.35985161328433585,0.46248970064314243,0.36940312584290114,0.12341640525817589,0.19658561794968485,0.3254009320884499,0.5098039215686274,0.5019607843137255,0.49411764705882355,0.5058823529411764,0.5137254901960784,0.4980392156862745,0.5019607843137255,0.4980392156862745
370,47.48734390735626,1,0.5142209475828292,0.3542868972342355,0.45269992729220193,0.3693608467741522,0.12320482980061853,0.18960165454455238,0.31311433593296806,0.5019607843137255,0.47843137254901963,0.47058823529411764,0.47843137254901963,0.4823529411764706,0.48627450980392156,0.4980392156862745,0.4980392156862745
371,47.49048495292664,1,0.5163850023003066,0.34583677419067543,0.44528029604320873,0.36911190564670127,0.12264047495397848,0.17899637844892358,0.303802372365373,0.5058823529411764,0.5058823529411764,0.5372549019607843,0.5254901960784314,0.49411764705882355,0.49411764705882355,0.49411764705882355,0.5098039215686274
372,47.51802897453308,1,0.5229802206973233,0.32543281674728763,0.43600577281049147,0.36869291853913405,0.1216701859537115,0.15338851439592624,0.2921624377713731,0.4823529411764706,0.5137254901960784,0.49019607843137253,0.49019607843137253,0.49019607843137253,0.5019607843137255,0.5058823529411764,0.48627450980392156
373,47.54669201374054,1,0.5275144301795675,0.2987427930882871,0.42662819955412945,0.3680167871794501,0.12039233937495894,0.11989136075172173,0.2803931708650768,0.48627450980392156,0.49019607843137253,0.47843137254901963,0.4980392156862745,0.5019607843137255,0.48627450980392156,0.48627450980392156,0.48627450980392156
374,47.54871392250061,1,0.5322547439300407,0.28163644484340766,0.42302144028468724,0.36705308292826905,0.11953796155922546,0.09842214128713882,0.2758665293397733,0.5254901960784314,0.5137254901960784,0.5215686274509804,0.5490196078431373,0.49411764705882355,0.49019607843137253,0.49411764705882355,0.4980392156862745
375,47.60764789581299,1,0.5302967892598526,0.26834295802572966,0.4115828581135527,0.3659243599913263,0.11984439607511554,0.08173823062118475,0.2615106055926192,0.5058823529411764,0.49411764705882355,0.48627450980392156,0.4980392156862745,0.49019607843137253,0.5058823529411764,0.5098039215686274,0.4823529411764706
376,47.637247920036316,1,0.5290601889761167,0.2563891257363719,0.41766282428187623,0.3645633352647273,0.12304599855406222,0.06673564531254875,0.2691412305592335,0.47843137254901963,0.49411764705882355,0.47843137254901963,0.49411764705882355,0.5098039215686274,0.4980392156862745,0.5176470588235295,0.5294117647058824
377,47.639418959617615,1,0.47310387840418,0.30100989993987903,0.49000412871224003,0.3613337436290665,0.1364791912936437,0.12273667956843978,0.3599327495284905,0.38823529411764707,0.3607843137254902,0.4235294117647059,0.49019607843137253,0.49019607843137253,0.403921568627451,0.10588235294117647,0.35294117647058826
378,47.666787981987,1,0.43157461335189196,0.3680956362806066,0.5276174802032121,0.3586025401562222,0.1465990818544782,0.2069322294207209,0.4071391600609021,0.6509803921568628,0.5490196078431373,0.5254901960784314,0.4980392156862745,0.5411764705882353,0.7568627450980392,0.8549019607843137,0.4588235294117647
379,47.66909301280975,1,0.4051937397638253,0.3983924213195194,0.5706924998311096,0.3548813252206434,0.1582550767733404,0.24495602723896148,0.46120020433488224,0.5607843137254902,0.21176470588235294,0.5058823529411764,0.4392156862745098,0.4549019607843137,0.47058823529411764,0.4588235294117647,0.5058823529411764
380,47.698933005332954,1,0.44940231809369363,0.38004947068043426,0.4811418013531616,0.3498458992573174,0.1702664337014578,0.22193481737808943,0.3488101388862111,0.5490196078431373,0.6705882352941176,0.45098039215686275,0.4745098039215686,0.49019607843137253,0.3411764705882353,0.43137254901960786,0.3843137254901961
381,47.726746916770935,1,0.45847073283724205,0.4259068472781471,0.4573371846876208,0.3440120261145004,0.182811960573203,0.27948784203026955,0.31893429793250294,0.4549019607843137,0.6392156862745098,0.44313725490196076,0.49411764705882355,0.43529411764705883,0.47843137254901963,0.40784313725490196,0.4588235294117647
