,time,gesture,ax,ay,az,qw,qx,qy,qz,e0,e1,e2,e3,e4,e5,e6,e7
0,488.52474105358124,0,0.39577900050322184,0.4743318041087968,0.5563070340557106,0.4235691244651202,0.425268887628509,0.3950107893087602,0.4893557202927163,0.49411764705882355,0.49019607843137253,0.6352941176470588,0.5568627450980392,0.5058823529411764,0.5019607843137255,0.5019607843137255,0.4980392156862745
1,488.52504301071167,0,0.4013200688616648,0.4832138127055239,0.5550032530691547,0.42431750395607987,0.42567734483322234,0.40523305387086983,0.48785520449941544,0.5098039215686274,0.49411764705882355,0.5568627450980392,0.5215686274509804,0.5098039215686274,0.5098039215686274,0.5058823529411764,0.49411764705882355
2,488.52561807632446,0,0.4054758701304969,0.48296935439635946,0.5568774382790498,0.4248137122847156,0.4264665383537599,0.40495170787987345,0.49001219600030194,0.4980392156862745,0.4980392156862745,0.5333333333333333,0.5098039215686274,0.5019607843137255,0.5019607843137255,0.49411764705882355,0.4823529411764706
3,488.52625596523285,0,0.40808343210360876,0.47987287580491894,0.5627444526851747,0.4250920370771931,0.42758896642167366,0.40138798431127914,0.49676451703174257,0.4980392156862745,0.4980392156862745,0.49019607843137253,0.49019607843137253,0.5098039215686274,0.5058823529411764,0.5098039215686274,0.4980392156862745
4,488.527281999588,0,0.4070241110950569,0.47367991194667913,0.565433500961602,0.425256958407911,0.42887921985855104,0.3942605294914496,0.4998593308458223,0.5058823529411764,0.4980392156862745,0.5058823529411764,0.5058823529411764,0.5019607843137255,0.4980392156862745,0.49411764705882355,0.49019607843137253
5,488.54088199138636,0,0.4083278920816128,0.4687907357503538,0.5664928229714578,0.4253745412262993,0.43019248280480926,0.3886335981475616,0.5010784998798627,0.4980392156862745,0.5019607843137255,0.49411764705882355,0.4980392156862745,0.4980392156862745,0.49411764705882355,0.49411764705882355,0.5019607843137255
6,488.54290103912354,0,0.4079204598974992,0.46479790668763127,0.5656779599383023,0.42554107014961745,0.4313669415579589,0.3840382687706603,0.5001406776050827,0.5058823529411764,0.5019607843137255,0.49411764705882355,0.4980392156862745,0.49411764705882355,0.4980392156862745,0.4980392156862745,0.4980392156862745
7,488.5720499753952,0,0.40987613304617276,0.46349412570107534,0.5631518842351292,0.42572626404890923,0.43238463026234497,0.3825377529773594,0.4972334282075458,0.49411764705882355,0.4980392156862745,0.4980392156862745,0.4980392156862745,0.4980392156862745,0.49019607843137253,0.4823529411764706,0.48627450980392156
8,488.60151302814484,0,0.41452084759565433,0.46039764544079514,0.5615221580019343,0.42596031954408137,0.43325173728518135,0.3789740274881049,0.49535778346591974,0.5058823529411764,0.4980392156862745,0.4980392156862745,0.5019607843137255,0.4980392156862745,0.4980392156862745,0.5098039215686274,0.5019607843137255
9,488.6034049987793,0,0.419328541026604,0.46129399424323747,0.5594850002521616,0.4262080078854626,0.43393299546359265,0.3800056313757516,0.49301322758690364,0.48627450980392156,0.4980392156862745,0.4980392156862745,0.5019607843137255,0.5137254901960784,0.5098039215686274,0.5058823529411764,0.5019607843137255
10,488.6326650381088,0,0.4219361029997159,0.46634614598335156,0.5571218970888661,0.426382303958692,0.4344122482038466,0.3858201305549575,0.4902935425674963,0.5019607843137255,0.5019607843137255,0.4823529411764706,0.49411764705882355,0.5019607843137255,0.4980392156862745,0.4980392156862745,0.49411764705882355
11,488.6613080501557,0,0.42177313413128564,0.4664276354240857,0.5553291983157936,0.42642853425007726,0.4348219538377,0.3859139163932767,0.48823033344774064,0.49411764705882355,0.5019607843137255,0.4980392156862745,0.49411764705882355,0.49019607843137253,0.4980392156862745,0.49411764705882355,0.4980392156862745
12,488.6631450653076,0,0.4219361029997159,0.461212511477862,0.5559810888090716,0.4263239485393667,0.4353385538158429,0.3799118532200733,0.4889805913443911,0.5058823529411764,0.49019607843137253,0.5137254901960784,0.49411764705882355,0.4980392156862745,0.5137254901960784,0.4980392156862745,0.4980392156862745
13,488.6912270784378,0,0.4196544887765026,0.4601531821251118,0.5566329793023496,0.4260545356102888,0.4360655275487017,0.37869267573512794,0.48973084924104154,0.5019607843137255,0.4980392156862745,0.4980392156862745,0.5137254901960784,0.5058823529411764,0.49411764705882355,0.49411764705882355,0.4823529411764706
14,488.721088051796,0,0.4065351928078885,0.4552640075976262,0.5569589245489885,0.42547968969045297,0.4370498428611845,0.37306574631190026,0.49010597818936674,0.5019607843137255,0.5019607843137255,0.49411764705882355,0.5019607843137255,0.5058823529411764,0.4980392156862745,0.5058823529411764,0.5137254901960784
15,488.7227920293808,0,0.3855932142576182,0.45118969410068843,0.5618481032485733,0.42473993588452064,0.43789285904293884,0.36837663685866034,0.49573291241424494,0.4980392156862745,0.5058823529411764,0.48627450980392156,0.5019607843137255,0.4980392156862745,0.4980392156862745,0.48627450980392156,0.5098039215686274
16,488.75127696990967,0,0.3956975144001671,0.440270526252233,0.5655964735014796,0.4242610999275335,0.43877350095831347,0.35580981468894046,0.5000468952239518,0.49411764705882355,0.4980392156862745,0.5098039215686274,0.4980392156862745,0.4980392156862745,0.49411764705882355,0.5019607843137255,0.4980392156862745
17,488.78115606307983,0,0.4120762645040106,0.4441818692119008,0.5629889116118098,0.4242274422779184,0.43945459011862575,0.360311362068843,0.49704586373338316,0.4980392156862745,0.5019607843137255,0.4980392156862745,0.4980392156862745,0.48627450980392156,0.49019607843137253,0.5019607843137255,0.49411764705882355
18,488.7831300497055,0,0.4138689654465746,0.45542697813489613,0.5559810888090716,0.4243798620312941,0.43986489307780613,0.37325330838523757,0.4889805913443911,0.4980392156862745,0.48627450980392156,0.5137254901960784,0.5058823529411764,0.4980392156862745,0.5019607843137255,0.4980392156862745,0.5019607843137255
19,488.81139707565313,0,0.41924705826122854,0.46691655037357477,0.5535364995427212,0.4244017498751091,0.44020362455471895,0.3864766064546092,0.48616712432798503,0.5058823529411764,0.49019607843137253,0.49019607843137253,0.5019607843137255,0.4980392156862745,0.5019607843137255,0.4980392156862745,0.5019607843137255
20,488.84160804748535,0,0.4264178553561258,0.4762059894855758,0.5558996025391328,0.42435488192453225,0.44064908711980294,0.3971677810017126,0.4888868091553263,0.5019607843137255,0.4980392156862745,0.5019607843137255,0.5019607843137255,0.49019607843137253,0.5098039215686274,0.49411764705882355,0.47843137254901963
21,488.8447929620743,0,0.4265808258933958,0.47465775185869524,0.5612776990586109,0.42431989133672765,0.44129396031109314,0.39538592113807575,0.4950764367450725,0.5058823529411764,0.5058823529411764,0.4980392156862745,0.49411764705882355,0.5019607843137255,0.4980392156862745,0.5137254901960784,0.5098039215686274
22,488.8713380098343,0,0.4208767836600037,0.4686277668819236,0.5644556652216851,0.4242954605387874,0.4420317339163434,0.3884460379948845,0.49873394400084664,0.4980392156862745,0.5019607843137255,0.49019607843137253,0.5098039215686274,0.5058823529411764,0.5019607843137255,0.4980392156862745,0.49019607843137253
23,488.90105199813837,0,0.4146023370363884,0.460805080962588,0.5674706585444907,0.42432978273683714,0.4426524087095795,0.3794429432350794,0.5022038865327723,0.49411764705882355,0.5058823529411764,0.4980392156862745,0.5019607843137255,0.49019607843137253,0.4980392156862745,0.5058823529411764,0.5058823529411764
24,488.902911067009,0,0.40881681036878115,0.45591589809090416,0.5678780903948365,0.4245074514894048,0.44284132292770845,0.37381600420855066,0.5026727980542944,0.4980392156862745,0.4980392156862745,0.5019607843137255,0.48627450980392156,0.49411764705882355,0.49411764705882355,0.47843137254901963,0.5098039215686274
25,488.9316129684448,0,0.4039276308347767,0.4537972560738003,0.5663298504315802,0.42482186932865046,0.4425115321240985,0.37137766844526204,0.5008909355017331,0.4980392156862745,0.5019607843137255,0.49019607843137253,0.49411764705882355,0.49019607843137253,0.49411764705882355,0.5098039215686274,0.5019607843137255
26,488.9612990617752,0,0.40213493656757127,0.4555899570163643,0.5639667473517267,0.42522147997241166,0.44177378732875155,0.373440880061876,0.4981712505783588,0.5058823529411764,0.4980392156862745,0.5019607843137255,0.4980392156862745,0.4980392156862745,0.5058823529411764,0.5019607843137255,0.5058823529411764
27,488.9630249738693,0,0.4034387175541272,0.459419810535298,0.5611147264519798,0.42558745793514047,0.4408497192859062,0.3778486416034594,0.4948888722901165,0.5058823529411764,0.49411764705882355,0.5019607843137255,0.5058823529411764,0.4980392156862745,0.5058823529411764,0.4980392156862745,0.4980392156862745
28,488.9912450313568,0,0.40572033010850095,0.4633311534949658,0.5572848697956275,0.4258408064621766,0.4399434903351418,0.3823501889833619,0.49048110713769194,0.49411764705882355,0.4980392156862745,0.4980392156862745,0.4980392156862745,0.49411764705882355,0.5019607843137255,0.5098039215686274,0.4980392156862745
29,489.02103805541987,0,0.406453710042513,0.46561276938701884,0.5555736574593778,0.4259235196943538,0.43913513822895534,0.3849760906613083,0.4885116803990671,0.49411764705882355,0.5058823529411764,0.5098039215686274,0.4980392156862745,0.5058823529411764,0.48627450980392156,0.48627450980392156,0.4980392156862745
30,489.0227780342102,0,0.40767600158833484,0.4634126429356999,0.5549217669660998,0.42586791273979685,0.43850456243230873,0.3824439748216811,0.4877614225024167,0.49411764705882355,0.4980392156862745,0.49019607843137253,0.5019607843137255,0.4980392156862745,0.5019607843137255,0.49411764705882355,0.5019607843137255
31,489.0516949892044,0,0.41012059135533707,0.4588494011385559,0.5587516234889449,0.4257728976789398,0.4380463774139578,0.3771921599418271,0.49216918750118843,0.5058823529411764,0.4980392156862745,0.5058823529411764,0.5019607843137255,0.49411764705882355,0.4980392156862745,0.4980392156862745,0.48627450980392156
32,489.0814369916916,0,0.41199477506327653,0.4569752207682957,0.5615221580019343,0.42572476593394115,0.4376350565048632,0.3750351740108552,0.49535778346591974,0.4980392156862745,0.5019607843137255,0.49411764705882355,0.4980392156862745,0.5098039215686274,0.49411764705882355,0.5019607843137255,0.4980392156862745
33,489.11143803596497,0,0.4150097675516624,0.45860494950475017,0.5625814800451668,0.425797078791052,0.4370974694725464,0.3769108216334716,0.49657695253837336,0.49411764705882355,0.49411764705882355,0.4980392156862745,0.49411764705882355,0.5058823529411764,0.49411764705882355,0.49019607843137253,0.5098039215686274
34,489.1416150331497,0,0.4166394962881167,0.4587679183731804,0.5647816104683241,0.4259491048090835,0.4364524291838174,0.37709838178614874,0.49910907294917184,0.5058823529411764,0.4980392156862745,0.4980392156862745,0.5019607843137255,0.5058823529411764,0.5058823529411764,0.5058823529411764,0.4980392156862745
35,489.14455604553217,0,0.41566165971378,0.4581160295487421,0.565433500961602,0.4261717746304986,0.4357255898971736,0.37634812581015853,0.4998593308458223,0.49411764705882355,0.5019607843137255,0.4980392156862745,0.49411764705882355,0.5137254901960784,0.5058823529411764,0.5058823529411764,0.5098039215686274
36,489.1713330745697,0,0.41378747600584054,0.4566492746872369,0.5655149872315408,0.4267716525149221,0.43407452891486736,0.37466004410219983,0.49995311303488704,0.4980392156862745,0.4980392156862745,0.5019607843137255,0.49411764705882355,0.4980392156862745,0.49411764705882355,0.49411764705882355,0.49019607843137253
37,489.2314100265503,0,0.41419490652111446,0.45542697813489613,0.5624999937418512,0.427155043183164,0.433168791653118,0.37325330838523757,0.49648317031089534,0.4823529411764706,0.4980392156862745,0.4980392156862745,0.49019607843137253,0.4980392156862745,0.5137254901960784,0.4980392156862745,0.49019607843137253
38,489.2330939769745,0,0.4131355838437229,0.45640481804691213,0.5603813496386979,0.42750715782045784,0.43226654999296077,0.37437870003186374,0.49404483214678147,0.5058823529411764,0.4980392156862745,0.5019607843137255,0.5058823529411764,0.49411764705882355,0.5019607843137255,0.5058823529411764,0.49411764705882355
39,489.26106595993036,0,0.41346152992478175,0.45982724105057193,0.5607072948853369,0.42787118439240784,0.43077836867956343,0.3783175515884532,0.49441996109510666,0.49411764705882355,0.4980392156862745,0.49019607843137253,0.5019607843137255,0.4980392156862745,0.49411764705882355,0.5098039215686274,0.49411764705882355
40,489.2920900583267,0,0.41126140347346274,0.45730116851819425,0.5622555347985279,0.42788325574186176,0.4302746371248638,0.37541030584017077,0.49620182359004816,0.5019607843137255,0.4980392156862745,0.4980392156862745,0.4980392156862745,0.49411764705882355,0.49019607843137253,0.4980392156862745,0.5098039215686274
41,489.2943949699402,0,0.4096316730681687,0.4556714397817398,0.5626629663651708,0.4278838511465285,0.42985320970171575,0.3735346582175543,0.49667073478505797,0.4980392156862745,0.5019607843137255,0.5019607843137255,0.5176470588235295,0.5058823529411764,0.49019607843137253,0.4980392156862745,0.4980392156862745
42,489.32105898857117,0,0.40735006051379496,0.4544491448982386,0.5622555347985279,0.42792960703484056,0.42947698693739783,0.37212792442125225,0.49620182359004816,0.5098039215686274,0.5019607843137255,0.49411764705882355,0.5058823529411764,0.49411764705882355,0.5019607843137255,0.49019607843137253,0.49411764705882355
43,489.3227880001068,0,0.40482398130605857,0.4555899570163643,0.5600554043920589,0.42803427149261997,0.429112756775465,0.373440880061876,0.49366970319845627,0.5098039215686274,0.5058823529411764,0.5019607843137255,0.5098039215686274,0.49411764705882355,0.5019607843137255,0.5019607843137255,0.5137254901960784
44,489.35231006145483,0,0.40327573867265903,0.45770859903346806,0.5596479727920392,0.4281873596357506,0.4287852112236469,0.3758792158251646,0.49320079196503325,0.5019607843137255,0.49019607843137253,0.49411764705882355,0.5058823529411764,0.49411764705882355,0.5098039215686274,0.49411764705882355,0.49411764705882355
45,489.3825650215149,0,0.40360168642255745,0.4608865637279635,0.5585886507821834,0.42835255562087937,0.42854011385289625,0.3795367213907577,0.4919816229309928,0.4980392156862745,0.4980392156862745,0.4980392156862745,0.4980392156862745,0.5176470588235295,0.49411764705882355,0.5058823529411764,0.5058823529411764
46,489.38433396816254,0,0.404172089143941,0.46210886194914397,0.556795952009111,0.4285055707789219,0.42841178878192304,0.3809434590283802,0.48991841381123713,0.49411764705882355,0.4980392156862745,0.5019607843137255,0.5098039215686274,0.5019607843137255,0.5019607843137255,0.5137254901960784,0.49019607843137253
47,489.41166400909424,0,0.4044980352249998,0.4644719606065725,0.5566329793023496,0.4286092902718752,0.4284100025679227,0.383663138862005,0.48973084924104154,0.49019607843137253,0.5019607843137255,0.5019607843137255,0.5098039215686274,0.5019607843137255,0.5058823529411764,0.5019607843137255,0.5058823529411764
48,489.4412580728531,0,0.40384614806940117,0.46414601452551363,0.5571218970888661,0.4286778808894885,0.42854892968328506,0.38328800895334963,0.4902935425674963,0.5058823529411764,0.5019607843137255,0.49411764705882355,0.49411764705882355,0.49411764705882355,0.4980392156862745,0.5058823529411764,0.4980392156862745
49,489.4440070390701,0,0.40352020031950264,0.4640645250847796,0.5566329793023496,0.428714377274902,0.42878471377265104,0.3831942231150305,0.48973084924104154,0.5019607843137255,0.5019607843137255,0.5019607843137255,0.49019607843137253,0.49411764705882355,0.5019607843137255,0.49019607843137253,0.5098039215686274
50,489.4722130298615,0,0.4044980352249998,0.46316817962001655,0.5555736574593778,0.42875124626839733,0.4291029191538416,0.38216262306870413,0.4885116803990671,0.48627450980392156,0.49411764705882355,0.5019607843137255,0.4823529411764706,0.5137254901960784,0.4980392156862745,0.49019607843137253,0.49411764705882355
51,489.5009560585022,0,0.40425357858467503,0.46308669351696174,0.5558996025391328,0.4287849769031006,0.4294648867780407,0.38206884107170536,0.4888868091553263,0.5098039215686274,0.49411764705882355,0.4980392156862745,0.5019607843137255,0.4980392156862745,0.4980392156862745,0.5019607843137255,0.5098039215686274
52,489.50418102741236,0,0.405964790086505,0.4639015562163493,0.5557366296654874,0.42882376271549094,0.42985529169738923,0.38300666296235336,0.4886992443930646,0.49411764705882355,0.49411764705882355,0.5019607843137255,0.49411764705882355,0.5137254901960784,0.4980392156862745,0.47843137254901963,0.49411764705882355
53,489.5323079824448,0,0.4074315432791704,0.4646349344815217,0.5563070340557106,0.4288794061625919,0.43025094193978614,0.3838507047766628,0.4893557202927163,0.4980392156862745,0.5058823529411764,0.49411764705882355,0.4980392156862745,0.49019607843137253,0.49411764705882355,0.5137254901960784,0.4980392156862745
54,489.56121802330017,0,0.40767600158833484,0.46650911818946117,0.5555736574593778,0.4289137725358266,0.4306370042463877,0.38600769454895506,0.4885116803990671,0.5058823529411764,0.49411764705882355,0.48627450980392156,0.5098039215686274,0.4980392156862745,0.5098039215686274,0.49019607843137253,0.48627450980392156
55,489.5631660223007,0,0.4072685710730609,0.466590604292516,0.5545143351157542,0.42892691561368074,0.4310135016651164,0.38610147654595384,0.4872925109808946,0.49411764705882355,0.49411764705882355,0.5098039215686274,0.4980392156862745,0.5058823529411764,0.4980392156862745,0.5019607843137255,0.49019607843137253
56,489.5919979810715,0,0.4066166789109433,0.466590604292516,0.5557366296654874,0.42890105392388006,0.4313745723409948,0.38610147654595384,0.4886992443930646,0.4980392156862745,0.5019607843137255,0.4823529411764706,0.49411764705882355,0.49411764705882355,0.5019607843137255,0.5058823529411764,0.5058823529411764
57,489.62105107307434,0,0.4075130293822252,0.4658572260273436,0.5553291983157936,0.4288323423046732,0.43171608877521994,0.3852574347316445,0.48823033344774064,0.4980392156862745,0.5019607843137255,0.5058823529411764,0.5058823529411764,0.5019607843137255,0.49019607843137253,0.5019607843137255,0.5058823529411764
58,489.6232689619064,0,0.4070241110950569,0.4656942554900736,0.5558181161023101,0.4287017546959662,0.43201931876871086,0.38506987265830706,0.48879302677419545,0.5098039215686274,0.5019607843137255,0.5019607843137255,0.49019607843137253,0.48627450980392156,0.4823529411764706,0.48627450980392156,0.4980392156862745
59,489.65258705616,0,0.4074315432791704,0.4635756118041301,0.5550847391722095,0.4285412374391223,0.432280620749699,0.3826315349743582,0.4879489864964142,0.5019607843137255,0.49411764705882355,0.49411764705882355,0.5019607843137255,0.49019607843137253,0.5019607843137255,0.4980392156862745,0.49019607843137253
60,489.68279898166656,0,0.407757491029069,0.46227183081757417,0.5551662256090322,0.4283405649391544,0.43249031074937827,0.38113101918105735,0.48804276887754505,0.4980392156862745,0.4980392156862745,0.5019607843137255,0.5058823529411764,0.5058823529411764,0.5098039215686274,0.49411764705882355,0.5019607843137255
61,489.68456101417536,0,0.40840937818466755,0.4621903447145194,0.5547587940924544,0.42811896492547935,0.4326437522939886,0.3810372371840586,0.48757385774015505,0.4980392156862745,0.4980392156862745,0.5019607843137255,0.4980392156862745,0.5215686274509804,0.48627450980392156,0.49411764705882355,0.49019607843137253
62,489.712051987648,0,0.40800194266287465,0.4623533135829496,0.5545958215525769,0.4278611316568402,0.4327375861488132,0.3812247973367357,0.48738629336202544,0.4980392156862745,0.4980392156862745,0.4980392156862745,0.5098039215686274,0.49411764705882355,0.5137254901960784,0.49411764705882355,0.5058823529411764
63,489.7410739660263,0,0.4075945121476007,0.46276074409822365,0.5538624446224762,0.42756698638616836,0.43279518674867373,0.38169370732172964,0.4865422530842442,0.5019607843137255,0.4980392156862745,0.49019607843137253,0.49019607843137253,0.4823529411764706,0.5019607843137255,0.5019607843137255,0.5098039215686274
64,489.743556022644,0,0.40808343210360876,0.4621903447145194,0.5536179859795439,0.427275003778899,0.43284306688718405,0.3810372371840586,0.48626090670911587,0.4980392156862745,0.4980392156862745,0.5098039215686274,0.4980392156862745,0.5019607843137255,0.5019607843137255,0.4980392156862745,0.49411764705882355
65,489.7720509767532,0,0.40840937818466755,0.46349412570107534,0.5541069035991765,0.4269570365595751,0.43287689547555835,0.3825377529773594,0.4868235998435046,0.5019607843137255,0.5019607843137255,0.5098039215686274,0.49411764705882355,0.49019607843137253,0.49019607843137253,0.5058823529411764,0.4980392156862745
66,489.80163598060614,0,0.40840937818466755,0.46276074409822365,0.5548402805292771,0.42667524881672925,0.4329350972420664,0.38169370732172964,0.4876676401212859,0.4980392156862745,0.49411764705882355,0.49411764705882355,0.5098039215686274,0.4980392156862745,0.5137254901960784,0.5058823529411764,0.49411764705882355
67,489.8313989639282,0,0.4075945121476007,0.46186439863346057,0.552640150072743,0.4264526001225766,0.43297034135701945,0.3806621072754033,0.4851355196720742,0.5137254901960784,0.4980392156862745,0.4980392156862745,0.5058823529411764,0.5058823529411764,0.4980392156862745,0.4980392156862745,0.5058823529411764
68,489.83430898189545,0,0.4083278920816128,0.4621903447145194,0.5535364995427212,0.42627638723045214,0.43299344689941094,0.3810372371840586,0.48616712432798503,0.4980392156862745,0.5058823529411764,0.49411764705882355,0.49411764705882355,0.5058823529411764,0.49411764705882355,0.49019607843137253,0.49019607843137253
69,489.8613550662994,0,0.40694262499200207,0.46251629246441794,0.5540254173292377,0.42613406630848916,0.4330036897803398,0.38141236901337416,0.4867298176544398,0.49019607843137253,0.49411764705882355,0.5058823529411764,0.5019607843137255,0.5058823529411764,0.49411764705882355,0.5058823529411764,0.5019607843137255
70,489.86351096630096,0,0.406453710042513,0.46324966405423174,0.5535364995427212,0.4260184406428603,0.43300513219616166,0.3822564031450427,0.48616712432798503,0.5019607843137255,0.5019607843137255,0.5019607843137255,0.5058823529411764,0.49411764705882355,0.5058823529411764,0.5058823529411764,0.5019607843137255
71,489.8921060562134,0,0.40629073116104475,0.46365709456950555,0.5535364995427212,0.42592442432531535,0.4330166369508521,0.38272531313003655,0.48616712432798503,0.4980392156862745,0.49411764705882355,0.5058823529411764,0.4823529411764706,0.48627450980392156,0.5058823529411764,0.4980392156862745,0.4823529411764706
72,489.9215860366821,0,0.40604627952723904,0.4640645250847796,0.5530475815893208,0.42585721466239695,0.4330428808520356,0.3831942231150305,0.4856044308094642,0.4980392156862745,0.5058823529411764,0.4980392156862745,0.5019607843137255,0.49019607843137253,0.5019607843137255,0.5058823529411764,0.5058823529411764
73,489.9238829612732,0,0.406453710042513,0.4626792613328482,0.5524771771990976,0.42583261100503733,0.4331121821139286,0.3815999291660513,0.4849479549098125,0.4980392156862745,0.4980392156862745,0.49019607843137253,0.5019607843137255,0.5098039215686274,0.4823529411764706,0.5058823529411764,0.49411764705882355
74,489.9521360397339,0,0.4044980352249998,0.4640645250847796,0.5523956910960428,0.4258089676777854,0.43317061820098285,0.3831942231150305,0.48485417291281374,0.4980392156862745,0.5019607843137255,0.49411764705882355,0.49019607843137253,0.5176470588235295,0.5058823529411764,0.4980392156862745,0.49019607843137253
75,489.98138201236725,0,0.4030312820323343,0.4639830423194041,0.5513363690861871,0.4257968982489917,0.4332406397104567,0.38310044495935214,0.48363500387877334,0.49411764705882355,0.49411764705882355,0.5058823529411764,0.49019607843137253,0.49411764705882355,0.5058823529411764,0.5019607843137255,0.5098039215686274
76,489.9832520484924,0,0.40360168642255745,0.4629237229796918,0.5521512321193426,0.425798684462992,0.4333242844628384,0.381881278998368,0.48457282615355335,0.49411764705882355,0.5058823529411764,0.5058823529411764,0.49411764705882355,0.5019607843137255,0.49411764705882355,0.49019607843137253,0.4980392156862745
77,490.012011051178,0,0.4049054674091134,0.4629237229796918,0.5505215057192637,0.42587772155151704,0.4333919320362859,0.381881278998368,0.4826971812198612,0.5058823529411764,0.5019607843137255,0.4980392156862745,0.5176470588235295,0.49411764705882355,0.5019607843137255,0.5058823529411764,0.4980392156862745
78,490.04125499725336,0,0.4052314118213326,0.464879392790686,0.5510919101094869,0.425971326847776,0.4334386674613079,0.38413205076765905,0.4833536571195129,0.5019607843137255,0.4980392156862745,0.5098039215686274,0.5058823529411764,0.5019607843137255,0.5019607843137255,0.5098039215686274,0.5019607843137255
79,490.0441290140152,0,0.4058018162115557,0.4674054686607431,0.5506029918223184,0.42603117654074885,0.4334749372088159,0.387039300357262,0.48279096321686,0.49411764705882355,0.49411764705882355,0.5019607843137255,0.4980392156862745,0.4980392156862745,0.4823529411764706,0.49411764705882355,0.49019607843137253
80,490.1025609970093,0,0.40604627952723904,0.4671610070138995,0.5517438006027648,0.42604364930818783,0.43355766004429425,0.3867579505249453,0.48410391501616334,0.5019607843137255,0.5019607843137255,0.49411764705882355,0.5058823529411764,0.49411764705882355,0.5058823529411764,0.49019607843137253,0.49411764705882355
81,490.10485303401947,0,0.4061277622926145,0.4649608755560615,0.5540254173292377,0.4260065075809419,0.43364968463719594,0.3842258289233374,0.4867298176544398,0.5019607843137255,0.49019607843137253,0.48627450980392156,0.49411764705882355,0.49019607843137253,0.5019607843137255,0.5019607843137255,0.5019607843137255
82,490.1324219703674,0,0.4052314118213326,0.46422750396624773,0.556795952009111,0.42580986270544585,0.4337458079189973,0.38338179479166884,0.48991841381123713,0.48627450980392156,0.49411764705882355,0.4823529411764706,0.4980392156862745,0.5019607843137255,0.5019607843137255,0.5019607843137255,0.5098039215686274
83,490.1615619659424,0,0.40384614806940117,0.466590604292516,0.5608702675086563,0.42543409321693876,0.43397967326880815,0.38610147654595384,0.4946075255692693,0.5098039215686274,0.4980392156862745,0.4980392156862745,0.49019607843137253,0.5058823529411764,0.4980392156862745,0.49019607843137253,0.4980392156862745
84,490.1640679836273,0,0.4030312820323343,0.4629237229796918,0.5633963432118294,0.42489096892122086,0.4345389772061808,0.381881278998368,0.4975147749668062,0.4980392156862745,0.4980392156862745,0.48627450980392156,0.48627450980392156,0.5098039215686274,0.49019607843137253,0.5098039215686274,0.4980392156862745
85,490.19207406044006,0,0.4036831691879329,0.4545306276636141,0.5629889116118098,0.42437762446214317,0.4354085580393747,0.37222170257693055,0.49704586373338316,0.5058823529411764,0.4980392156862745,0.5098039215686274,0.4980392156862745,0.5058823529411764,0.5019607843137255,0.47843137254901963,0.4980392156862745
86,490.2212730646133,0,0.4018904732518879,0.4433670081813529,0.5658409324781798,0.42401199798023376,0.43657898148541174,0.3593735420988552,0.5003282419832122,0.4980392156862745,0.5019607843137255,0.4980392156862745,0.48627450980392156,0.49019607843137253,0.4980392156862745,0.48627450980392156,0.4823529411764706
87,490.2513129711151,0,0.400586692265332,0.4384778253096691,0.5756192898773493,0.42383759050871184,0.4379986105944002,0.3537466030723265,0.5115821104329686,0.48627450980392156,0.49411764705882355,0.49411764705882355,0.49411764705882355,0.4980392156862745,0.49411764705882355,0.5058823529411764,0.5176470588235295
88,490.2535650730133,0,0.4009126383463908,0.43978160629622504,0.5759452349571043,0.42390921576946544,0.43941806492330904,0.3552471188656274,0.5119572391892279,0.5019607843137255,0.4980392156862745,0.49411764705882355,0.5058823529411764,0.5019607843137255,0.5019607843137255,0.5058823529411764,0.5098039215686274
89,490.28147196769714,0,0.40205344712683716,0.440270526252233,0.5713820015041585,0.4241310846755707,0.440812387413299,0.35580981468894046,0.5067054339126749,0.5019607843137255,0.4980392156862745,0.4980392156862745,0.5058823529411764,0.5058823529411764,0.49019607843137253,0.5019607843137255,0.5019607843137255
90,490.28398203849787,0,0.4044980352249998,0.43855931475040316,0.5713820015041585,0.42441280903662953,0.44252417198897614,0.35384038891064573,0.5067054339126749,0.5019607843137255,0.4980392156862745,0.5058823529411764,0.4980392156862745,0.47843137254901963,0.4980392156862745,0.48627450980392156,0.49019607843137253
91,490.3120880126953,0,0.4070241110950569,0.4341590518347273,0.5738265912711609,0.4247168860412754,0.44466889642513274,0.34877614570743004,0.509518901505279,0.4980392156862745,0.4980392156862745,0.5098039215686274,0.4980392156862745,0.49411764705882355,0.5058823529411764,0.4980392156862745,0.49411764705882355
92,490.34147906303406,0,0.40987613304617276,0.42592893540011784,0.57570077664794,0.42515223056834445,0.4471317628606927,0.33930414096263106,0.5116758931982316,0.5019607843137255,0.5019607843137255,0.5019607843137255,0.5058823529411764,0.5098039215686274,0.49411764705882355,0.5058823529411764,0.49411764705882355
93,490.3439990282059,0,0.4120762645040106,0.42283245347099796,0.5758637488540496,0.4257375056731501,0.44974530701081317,0.33574041355271633,0.5118634571922291,0.49019607843137253,0.4980392156862745,0.5019607843137255,0.4980392156862745,0.5058823529411764,0.5098039215686274,0.49411764705882355,0.4980392156862745
94,490.37208700180054,0,0.4132170666090984,0.4254400154441098,0.5757822627509948,0.4263224830756223,0.45244077884308265,0.338741445139318,0.5117696751952303,0.4980392156862745,0.4980392156862745,0.4980392156862745,0.5058823529411764,0.49019607843137253,0.49411764705882355,0.5019607843137255,0.49019607843137253
95,490.4013839960098,0,0.4129726149752927,0.42283245347099796,0.579856577916772,0.42683959394938253,0.45537223451338055,0.33574041355271633,0.5164587865691304,0.5058823529411764,0.4980392156862745,0.48627450980392156,0.4980392156862745,0.5098039215686274,0.4980392156862745,0.5058823529411764,0.5058823529411764
96,490.4039410352707,0,0.41566165971378,0.41761732952477426,0.582138194810129,0.4273794454400934,0.45864314767015274,0.32973835037951293,0.5190846893994729,0.49411764705882355,0.49411764705882355,0.49019607843137253,0.4980392156862745,0.5098039215686274,0.5058823529411764,0.49411764705882355,0.49411764705882355
97,490.43211901187897,0,0.41566165971378,0.41403193431500485,0.5868644011367201,0.42797711264460886,0.4622301246719753,0.3256119348289258,0.5245240594382876,0.4980392156862745,0.4980392156862745,0.4980392156862745,0.5019607843137255,0.5019607843137255,0.5019607843137255,0.5098039215686274,0.5058823529411764
98,490.4615240097046,0,0.41452084759565433,0.4075130293822252,0.5898793952939456,0.4286105655902583,0.46620423186747906,0.31810935586242156,0.5279940029305433,0.5019607843137255,0.4980392156862745,0.5058823529411764,0.4980392156862745,0.5176470588235295,0.5098039215686274,0.4980392156862745,0.5019607843137255
99,490.46401500701904,0,0.4189211105113302,0.400586692265332,0.5938722243566681,0.429373040806539,0.4705299850591842,0.3101378649902632,0.5325893323074447,0.5058823529411764,0.5019607843137255,0.49019607843137253,0.4823529411764706,0.5019607843137255,0.5137254901960784,0.4980392156862745,0.49411764705882355
100,490.4924360513687,0,0.42283245347099796,0.39374184125149353,0.5978650534193908,0.43039115205617234,0.47523008568257286,0.30226015611510365,0.5371846616843461,0.4980392156862745,0.4980392156862745,0.5098039215686274,0.5098039215686274,0.4823529411764706,0.5019607843137255,0.5019607843137255,0.4980392156862745
101,490.5211980342865,0,0.4246251544135619,0.39088982764457597,0.6064211159350591,0.43164500898196745,0.48037619587507485,0.2989777862201465,0.5470317963378004,0.5019607843137255,0.4980392156862745,0.4980392156862745,0.4745098039215686,0.48627450980392156,0.49411764705882355,0.49019607843137253,0.4980392156862745
102,490.5235719680786,0,0.4286994695793393,0.38404496494885987,0.6082138152087834,0.4330988853832572,0.4859679560890979,0.2911000639003653,0.549095006033754,0.4980392156862745,0.5019607843137255,0.49411764705882355,0.4980392156862745,0.5098039215686274,0.4745098039215686,0.49411764705882355,0.49411764705882355
103,490.5525699853897,0,0.44344849261556807,0.3764667473517267,0.6101694850197775,0.4348684875933993,0.49191130026199725,0.2823783266555179,0.5513457778030452,0.5019607843137255,0.5019607843137255,0.4980392156862745,0.5137254901960784,0.5058823529411764,0.5058823529411764,0.5137254901960784,0.4980392156862745
104,490.5824300050736,0,0.46365709456950555,0.36954041190367304,0.6030801773656145,0.43687297310326645,0.49790162051864356,0.2744068377040197,0.5431867248575495,0.4980392156862745,0.49019607843137253,0.4980392156862745,0.49411764705882355,0.49411764705882355,0.5058823529411764,0.48627450980392156,0.4980392156862745
105,490.5846999883652,0,0.47612450338252105,0.37174054336151097,0.5998207248992247,0.43907839616421107,0.5038096556582746,0.27693895930562756,0.5394354353742974,0.5098039215686274,0.5098039215686274,0.5098039215686274,0.5098039215686274,0.47843137254901963,0.5058823529411764,0.5098039215686274,0.5137254901960784
106,490.61220502853394,0,0.4872066417682464,0.37117013396476883,0.6012874780918901,0.4413988763753608,0.509799967079884,0.2762824776439953,0.5411235151615957,0.5058823529411764,0.48627450980392156,0.49019607843137253,0.5215686274509804,0.5176470588235295,0.49019607843137253,0.4980392156862745,0.5019607843137255
107,490.64152705669403,0,0.4969849991674159,0.38502280486087603,0.6020208546882229,0.4438600872018151,0.5158372916539823,0.2922254555469916,0.5419675550552449,0.4980392156862745,0.5098039215686274,0.5019607843137255,0.5098039215686274,0.4745098039215686,0.5058823529411764,0.5058823529411764,0.5058823529411764
108,490.6441420316696,0,0.5004889099429701,0.3838005133150542,0.6060951698540002,0.4463212077572393,0.5221092690485798,0.29081872559200994,0.546656666429145,0.49411764705882355,0.4980392156862745,0.4980392156862745,0.49019607843137253,0.5058823529411764,0.4980392156862745,0.49411764705882355,0.49019607843137253
109,490.672101020813,0,0.5154009035164687,0.38999347717329397,0.6073989508405562,0.44874840753259887,0.5285564144961447,0.29794618041183946,0.5481571822224459,0.4980392156862745,0.5058823529411764,0.5137254901960784,0.5058823529411764,0.49411764705882355,0.5176470588235295,0.5098039215686274,0.48627450980392156
110,490.70130598545074,0,0.5377281558317084,0.3926825118987433,0.5979465395224455,0.45136198241328274,0.5349575217183455,0.3010409786301583,0.5372784436813448,0.49411764705882355,0.5019607843137255,0.49411764705882355,0.49019607843137253,0.49411764705882355,0.4980392156862745,0.4980392156862745,0.4980392156862745
111,490.70410907268524,0,0.558099732995667,0.397408725901997,0.5870273733428297,0.4540814375296622,0.5411943395070394,0.30648035750400987,0.5247116234322851,0.5058823529411764,0.49411764705882355,0.49411764705882355,0.5098039215686274,0.4980392156862745,0.5098039215686274,0.4980392156862745,0.5058823529411764
112,490.73217701911926,0,0.5594850002521616,0.40531289792438735,0.5971316751542183,0.4568472439390206,0.5473147729693196,0.3155772342608138,0.5363406198700366,0.48627450980392156,0.5058823529411764,0.49411764705882355,0.49411764705882355,0.48627450980392156,0.4823529411764706,0.4980392156862745,0.48627450980392156
113,490.79121506214136,0,0.5640482337051074,0.4184321905553221,0.6011245058857806,0.4593212540451505,0.5532460021937781,0.3306761703495006,0.5409359511675982,0.49019607843137253,0.4980392156862745,0.48627450980392156,0.48627450980392156,0.5098039215686274,0.5019607843137255,0.49411764705882355,0.5019607843137255
114,490.79290997982025,0,0.5777379342308286,0.4204693531447297,0.6013689641949449,0.4617371430525014,0.5590001984042002,0.3330207317984313,0.5412172971585945,0.4980392156862745,0.49411764705882355,0.5019607843137255,0.47843137254901963,0.49411764705882355,0.4823529411764706,0.49411764705882355,0.4980392156862745
115,490.8212580680847,0,0.5946870870560557,0.4176988189655083,0.5990873483028918,0.4659095200020436,0.5695059850653302,0.3298321362178321,0.538591395480648,0.5019607843137255,0.5058823529411764,0.49411764705882355,0.4980392156862745,0.48627450980392156,0.4823529411764706,0.5019607843137255,0.5019607843137255
116,490.8239870071411,0,0.5884941282043349,0.4284550079324955,0.6029172051595049,0.4676093004513744,0.5743360421684792,0.3422113867109135,0.5429991608635519,0.5058823529411764,0.5058823529411764,0.5058823529411764,0.5019607843137255,0.49019607843137253,0.5137254901960784,0.4980392156862745,0.5098039215686274
117,490.8521670103073,0,0.5953389775493336,0.4388852558249429,0.6013689641949449,0.46894572848049076,0.578919759233718,0.35421551305732035,0.5412172971585945,0.5019607843137255,0.48627450980392156,0.49411764705882355,0.47843137254901963,0.5058823529411764,0.4980392156862745,0.5019607843137255,0.49411764705882355
118,490.9414780139923,0,0.6038950400650019,0.44002606794306864,0.5923239833921081,0.47000125419112065,0.5831853919193599,0.3555284686979441,0.5308074686024873,0.5137254901960784,0.4980392156862745,0.49411764705882355,0.5019607843137255,0.4980392156862745,0.5176470588235295,0.4980392156862745,0.4980392156862745
119,490.9435920715332,0,0.6115547554470676,0.4468709206257468,0.5892275031318279,0.4707396347249989,0.5871365894798142,0.36340617949376397,0.5272437431132327,0.4980392156862745,0.4980392156862745,0.5137254901960784,0.5215686274509804,0.5137254901960784,0.49411764705882355,0.4823529411764706,0.5058823529411764
120,490.972424030304,0,0.6336375427777843,0.44768578165629463,0.5610332401319759,0.4708562284033763,0.5985925536387581,0.3643439994637517,0.4947950900434319,0.5098039215686274,0.5176470588235295,0.5176470588235295,0.5019607843137255,0.47843137254901963,0.5411764705882353,0.5333333333333333,0.5058823529411764
121,491.00194704532623,0,0.6337190322185184,0.44214471162901214,0.5634778294817682,0.4701996891219376,0.6001870915115846,0.357966806381893,0.497608557155871,0.49411764705882355,0.47843137254901963,0.48627450980392156,0.5058823529411764,0.5019607843137255,0.5058823529411764,0.47843137254901963,0.5019607843137255
122,491.00451505184174,0,0.6348598376612854,0.43326270136344536,0.557773787582144,0.4693208545478257,0.6013811851741165,0.34774453989912313,0.49104380046414675,0.4980392156862745,0.5137254901960784,0.4980392156862745,0.5058823529411764,0.4823529411764706,0.4823529411764706,0.5058823529411764,0.4980392156862745
123,491.032467007637,0,0.6480606230706336,0.4207138114538941,0.549788129122931,0.46827696035546046,0.6022391056791426,0.33330207778942766,0.48185314132621204,0.5019607843137255,0.5137254901960784,0.5215686274509804,0.4823529411764706,0.4823529411764706,0.4980392156862745,0.5019607843137255,0.48627450980392156
124,491.0615040063858,0,0.6505866956030113,0.4176988189655083,0.5517438006027648,0.46711757494368145,0.6027385541615617,0.3298321362178321,0.48410391501616334,0.5254901960784314,0.5411764705882353,0.5176470588235295,0.5215686274509804,0.5333333333333333,0.49019607843137253,0.49411764705882355,0.5176470588235295
125,491.06383299827576,0,0.6516460182804029,0.41908408939279834,0.5566329793023496,0.4658386745293374,0.6030239930794771,0.33142643784945214,0.48973084924104154,0.4980392156862745,0.5529411764705883,0.5137254901960784,0.5176470588235295,0.49411764705882355,0.4980392156862745,0.49019607843137253,0.5019607843137255
126,491.0932910442352,1,0.657513031051065,0.41574314581683475,0.5475065123964581,0.46469094368374564,0.6033247588659116,0.3275813606072206,0.47922723868793554,0.49411764705882355,0.5019607843137255,0.5098039215686274,0.49019607843137253,0.5215686274509804,0.4666666666666667,0.4823529411764706,0.47843137254901963
127,491.12153804302216,1,0.6626466705630735,0.4177803084062424,0.5538624446224762,0.46381120831999273,0.603631346173459,0.3299259220561513,0.4865422530842442,0.49019607843137253,0.49411764705882355,0.49019607843137253,0.49411764705882355,0.4627450980392157,0.47843137254901963,0.48627450980392156,0.5019607843137255
128,491.1239950656891,1,0.6610169434954588,0.4194915199080723,0.5563885203256493,0.46305003723199833,0.6039216558856807,0.331895347834446,0.4894495024817811,0.49019607843137253,0.48627450980392156,0.4823529411764706,0.4666666666666667,0.5294117647058824,0.5058823529411764,0.5294117647058824,0.47843137254901963
129,491.1520000696182,1,0.6642763976306882,0.4229954323524661,0.5633148568584487,0.4624160368981875,0.6041944914312626,0.3359279852293547,0.49742099268170836,0.5098039215686274,0.4980392156862745,0.5019607843137255,0.5215686274509804,0.5058823529411764,0.5254901960784314,0.5019607843137255,0.5019607843137255
130,491.1815750598908,1,0.6617503217606311,0.442959577666079,0.5659224189150026,0.4616766941135414,0.6043963528199038,0.35890463211386137,0.5004220243643431,0.5137254901960784,0.5098039215686274,0.4980392156862745,0.49411764705882355,0.5019607843137255,0.4980392156862745,0.49019607843137253,0.5176470588235295
131,491.18408000469213,1,0.6556388473431255,0.45534549370068095,0.5673891724414359,0.460611213621015,0.604474206781736,0.373159528308899,0.5021101045357735,0.49019607843137253,0.5019607843137255,0.4980392156862745,0.5019607843137255,0.49019607843137253,0.4823529411764706,0.48627450980392156,0.4745098039215686
132,491.21243596076965,1,0.6540906080474052,0.46634614598335156,0.5714634879409812,0.45902911010242303,0.6042734689793209,0.3858201305549575,0.5067992162938056,0.48627450980392156,0.5019607843137255,0.4980392156862745,0.48627450980392156,0.4823529411764706,0.4823529411764706,0.4588235294117647,0.5098039215686274
133,491.24162197113037,1,0.6501792650877374,0.4717242421356849,0.5673076863383812,0.4566366301017777,0.6036433656650873,0.3920097577221585,0.5020163225387748,0.5058823529411764,0.5137254901960784,0.5137254901960784,0.5294117647058824,0.4980392156862745,0.5215686274509804,0.5058823529411764,0.5137254901960784
134,491.2441700696945,1,0.6552314168278515,0.4801988168794587,0.5544328486789315,0.4535423984782225,0.6025162953614327,0.40176310845795377,0.48719872859976376,0.4823529411764706,0.47843137254901963,0.47058823529411764,0.4980392156862745,0.5019607843137255,0.5137254901960784,0.4980392156862745,0.48627450980392156
135,491.272036075592,1,0.6635430160278365,0.4922587935083605,0.548810293383014,0.4496734359055519,0.6004657793088428,0.41564288242697695,0.4807277544812364,0.47843137254901963,0.4470588235294118,0.47843137254901963,0.47843137254901963,0.5176470588235295,0.5058823529411764,0.5019607843137255,0.5058823529411764
136,491.30218601226807,1,0.6620762661728504,0.48932528378535023,0.5475065123964581,0.44537036763165117,0.597782751434109,0.4122667190110597,0.47922723868793554,0.5529411764705883,0.5411764705882353,0.4549019607843137,0.5176470588235295,0.4392156862745098,0.5019607843137255,0.5333333333333333,0.4980392156862745
137,491.3045530319214,1,0.6514830460742933,0.4579530556737928,0.549788129122931,0.44070626133309565,0.594462037478611,0.3761605598955007,0.48185314132621204,0.4745098039215686,0.5450980392156862,0.5215686274509804,0.49411764705882355,0.45098039215686275,0.5019607843137255,0.48627450980392156,0.47843137254901963
138,491.33244502544403,1,0.6345338932490663,0.41851367999605615,0.56608539145488,0.4358625809870388,0.5903625303776421,0.3307699561878198,0.5006095887424727,0.5019607843137255,0.3411764705882353,0.41568627450980394,0.5333333333333333,0.4745098039215686,0.5058823529411764,0.49019607843137253,0.4392156862745098
139,491.3616800308228,1,0.6347783515582307,0.3953715683191083,0.5547587940924544,0.43042381864511636,0.5854142374316317,0.3041358018170598,0.48757385774015505,0.49411764705882355,0.3686274509803922,0.47058823529411764,0.5529411764705883,0.596078431372549,0.5098039215686274,0.4745098039215686,0.5254901960784314
140,491.36395597457886,1,0.6476531925553597,0.37516296636517077,0.5288461472349814,0.42534708154719936,0.5797059085078141,0.280877810862217,0.4577511066363997,0.5333333333333333,0.615686274509804,0.5725490196078431,0.5490196078431373,0.4392156862745098,0.5254901960784314,0.5019607843137255,0.5254901960784314
141,491.3921810388565,1,0.6233702687602861,0.3904009076885679,0.5572848697956275,0.42114953818685447,0.5736808972863569,0.2984150903968334,0.49048110713769194,0.5215686274509804,0.615686274509804,0.596078431372549,0.5098039215686274,0.5254901960784314,0.4745098039215686,0.3176470588235294,0.49019607843137253
142,491.4214230775833,1,0.5352020799616514,0.4162320641040031,0.6357561881325674,0.4171771749508263,0.5678410185030643,0.32814405450987344,0.5807934016870695,0.5607843137254902,0.6196078431372549,0.615686274509804,0.5137254901960784,0.5372549019607843,0.5019607843137255,0.8352941176470589,0.49411764705882355
143,491.423887014389,1,0.4326922986420618,0.4269067753121339,0.7297913947083832,0.4130277422082176,0.5634913742189395,0.34042953260925723,0.6890181066400489,0.4666666666666667,0.4823529411764706,0.35294117647058826,0.38823529411764707,0.48627450980392156,0.4823529411764706,0.43529411764705883,0.592156862745098
144,491.45220506191254,1,0.42136570194717204,0.34737613513222226,0.7647490130231909,0.4104387056824461,0.5612626785181645,0.24889806921790522,0.7292506755442143,0.4666666666666667,0.5254901960784314,0.5568627450980392,0.403921568627451,0.5098039215686274,0.5098039215686274,0.5411764705882353,0.5254901960784314
145,491.4814109802246,1,0.49380703280408084,0.27208277898651834,0.7028194245059826,0.40948419325452606,0.5600589873165361,0.1622432773531305,0.6579761849657249,0.4823529411764706,0.5019607843137255,0.5725490196078431,0.5098039215686274,0.5254901960784314,0.5333333333333333,0.5019607843137255,0.4666666666666667
146,491.48409402370453,1,0.5434321963962608,0.275423712549444,0.6720990835500238,0.40899614581114574,0.5596923332814115,0.16608834307140075,0.6226202799054958,0.5019607843137255,0.4,0.4588235294117647,0.5058823529411764,0.5450980392156862,0.4745098039215686,0.40784313725490196,0.4745098039215686
147,491.5422489643097,1,0.5698337618746704,0.3284713024829631,0.6459419810535297,0.4082838958594983,0.5590455125406628,0.22714058061174183,0.5925161858838004,0.4666666666666667,0.43529411764705883,0.42745098039215684,0.49019607843137253,0.49411764705882355,0.49019607843137253,0.45098039215686275,0.47058823529411764
148,491.5450160503388,1,0.5472620532528739,0.3882822656714641,0.6140808279794453,0.40742433126932787,0.5583214620526518,0.2959767546335448,0.5558473251829477,0.49019607843137253,0.49019607843137253,0.5333333333333333,0.4823529411764706,0.45098039215686275,0.48627450980392156,0.4745098039215686,0.4627450980392157
149,491.5719870328903,1,0.5500325880996312,0.38485982597940777,0.6064211159350591,0.4075653192531013,0.5589191004472641,0.2920378838703532,0.5470317963378004,0.5137254901960784,0.4980392156862745,0.4980392156862745,0.5411764705882353,0.4823529411764706,0.5137254901960784,0.5137254901960784,0.5333333333333333
150,491.601459980011,1,0.5486473203424845,0.38135593022341047,0.6052803071546127,0.4078119397074028,0.5592939153676442,0.2880052656820466,0.5457188445384971,0.5215686274509804,0.4745098039215686,0.47843137254901963,0.5019607843137255,0.5098039215686274,0.4980392156862745,0.4745098039215686,0.48627450980392156
151,491.6041259765625,1,0.548810293383014,0.3944752128413073,0.6167698793932913,0.40787071959263566,0.559422745572254,0.3031041902467722,0.5589421426078687,0.4823529411764706,0.5019607843137255,0.5294117647058824,0.4980392156862745,0.5098039215686274,0.5019607843137255,0.4980392156862745,0.47058823529411764
152,491.63229501247406,1,0.5510919101094869,0.4040905997032069,0.6201923023969511,0.4077973657376881,0.5594366742001363,0.31417049662319124,0.562880994164458,0.4980392156862745,0.48627450980392156,0.47843137254901963,0.5098039215686274,0.4980392156862745,0.4823529411764706,0.5137254901960784,0.5019607843137255
153,491.66235601902014,1,0.5553291983157936,0.40327573867265903,0.6191329797195595,0.4077999874388822,0.55952853937824,0.31323267665320353,0.5616618243621536,0.48627450980392156,0.5137254901960784,0.47843137254901963,0.5058823529411764,0.49411764705882355,0.48627450980392156,0.5019607843137255,0.48627450980392156
154,491.6642379760742,1,0.552640150072743,0.39520859611299874,0.6276890439040674,0.4078705236852937,0.559587008116518,0.3039482378230623,0.5715089609362681,0.49411764705882355,0.47843137254901963,0.4980392156862745,0.4745098039215686,0.5058823529411764,0.5058823529411764,0.4823529411764706,0.47058823529411764
155,491.69225597381586,1,0.558425678075422,0.3920306297496637,0.6294002554058973,0.40790631710906833,0.5595162125809775,0.3002907303368089,0.5734783867145627,0.5019607843137255,0.4666666666666667,0.5176470588235295,0.5176470588235295,0.4823529411764706,0.5019607843137255,0.4980392156862745,0.5137254901960784
156,491.7213439941406,1,0.5585071645122447,0.397001295386723,0.6280149883162867,0.40790616729757156,0.5593404798539069,0.30601144751901593,0.5718840889242632,0.4980392156862745,0.5176470588235295,0.5372549019607843,0.5215686274509804,0.5019607843137255,0.5058823529411764,0.4823529411764706,0.4823529411764706
157,491.7240560054779,1,0.5598924317687394,0.3996903434628896,0.6289113387875687,0.4078814234320163,0.5591421409561008,0.30910626110261646,0.5729156947325702,0.4823529411764706,0.49411764705882355,0.4627450980392157,0.4980392156862745,0.5215686274509804,0.5137254901960784,0.5137254901960784,0.5176470588235295
158,491.75204503536224,1,0.5587516234889449,0.39610494491544107,0.6294002554058973,0.407880128907031,0.5589906853741533,0.304979841710709,0.5734783867145627,0.4745098039215686,0.5019607843137255,0.47058823529411764,0.47843137254901963,0.5098039215686274,0.48627450980392156,0.5215686274509804,0.5098039215686274
159,491.7814660072327,1,0.5607072948853369,0.3935788623700254,0.6277705300071222,0.4078842275959307,0.5588704827752311,0.30207258443846524,0.5716027429332668,0.5254901960784314,0.5333333333333333,0.5215686274509804,0.5215686274509804,0.5215686274509804,0.5058823529411764,0.4980392156862745,0.5333333333333333
160,491.7840930223465,1,0.5612776990586109,0.39023792880709973,0.624429589768838,0.4078367162241818,0.5587302553729029,0.298227518720195,0.5677576695323557,0.5098039215686274,0.5254901960784314,0.5215686274509804,0.5098039215686274,0.4666666666666667,0.4980392156862745,0.48627450980392156,0.47843137254901963
161,491.81337201595306,1,0.5587516234889449,0.39211211919039785,0.6218220277957262,0.40778746281361744,0.5586030154749514,0.3003845161751281,0.564756637945754,0.4980392156862745,0.5176470588235295,0.47843137254901963,0.48627450980392156,0.5019607843137255,0.4980392156862745,0.48627450980392156,0.4980392156862745
162,491.8415470123291,1,0.5578552740189667,0.3952900822160535,0.6243481036657832,0.4076966463159913,0.5585070938624727,0.304042019820061,0.567663887535357,0.5215686274509804,0.5176470588235295,0.49411764705882355,0.5176470588235295,0.49411764705882355,0.48627450980392156,0.49411764705882355,0.4745098039215686
163,491.8440350294113,1,0.5601368907454396,0.39072684876310776,0.6249185063871667,0.4076376263482314,0.5584956659341909,0.29879021454350807,0.5683203615143484,0.5137254901960784,0.49411764705882355,0.5215686274509804,0.5176470588235295,0.4980392156862745,0.49411764705882355,0.5137254901960784,0.5058823529411764
164,491.90226006507874,1,0.5600554043920589,0.3896675194103576,0.6222294599798397,0.4075761018395508,0.5585094793224602,0.2975710370585627,0.5652255498514082,0.5019607843137255,0.5411764705882353,0.5215686274509804,0.48627450980392156,0.49411764705882355,0.5254901960784314,0.5019607843137255,0.4745098039215686
165,491.9047200679779,1,0.5591590550055227,0.38803779734926175,0.6224739199578437,0.40749303712655405,0.5585102053320217,0.2956953971185871,0.5655068977630646,0.49411764705882355,0.47058823529411764,0.4823529411764706,0.49411764705882355,0.5137254901960784,0.49019607843137253,0.49411764705882355,0.49019607843137253
166,491.9321860074997,1,0.5575293287723277,0.38909712670201196,0.6204367607061154,0.40730801992800214,0.5584497621550422,0.29691457460353254,0.5631623401554544,0.49411764705882355,0.5176470588235295,0.5019607843137255,0.4980392156862745,0.49411764705882355,0.49411764705882355,0.49019607843137253,0.49019607843137253
167,491.96147203445435,1,0.5533735268359598,0.38942306777655183,0.6235332409663956,0.40726024158448326,0.5585324561806173,0.2972896987502072,0.566726065644709,0.48627450980392156,0.49411764705882355,0.49019607843137253,0.5058823529411764,0.5058823529411764,0.4980392156862745,0.5019607843137255,0.5058823529411764
168,491.9648640155792,0,0.5499511013290405,0.38534874593541585,0.6243481036657832,0.4072853292482171,0.5587188408892426,0.2926005796936662,0.567663887535357,0.5019607843137255,0.49019607843137253,0.5019607843137255,0.5098039215686274,0.47843137254901963,0.49019607843137253,0.48627450980392156,0.5058823529411764
169,491.9920860528946,0,0.5478324576430971,0.3869784846849082,0.6256518846523391,0.4074377029057476,0.5591057060318142,0.2944762388402439,0.5691644033286578,0.5019607843137255,0.5058823529411764,0.49411764705882355,0.47843137254901963,0.5019607843137255,0.5019607843137255,0.4980392156862745,0.4980392156862745
170,492.0214840173721,0,0.5472620532528739,0.38689699524417415,0.6250814819309556,0.40776592452996163,0.5596332345665829,0.29438245300192467,0.5685079293496663,0.5019607843137255,0.5019607843137255,0.5058823529411764,0.4980392156862745,0.4627450980392157,0.4980392156862745,0.5058823529411764,0.5058823529411764
171,492.05148005485535,0,0.549788129122931,0.38347457224051434,0.623288784326071,0.4083060180238596,0.5602539016771781,0.2904436014453352,0.5664447215743729,0.5058823529411764,0.49411764705882355,0.48627450980392156,0.4980392156862745,0.5215686274509804,0.4980392156862745,0.49411764705882355,0.49411764705882355
172,492.05360996723175,0,0.5523956910960428,0.3777705283382826,0.6232072948853369,0.40889018874904137,0.5608063430956011,0.2838788424488187,0.5663509357360537,0.5098039215686274,0.5137254901960784,0.5019607843137255,0.49411764705882355,0.5098039215686274,0.4980392156862745,0.4980392156862745,0.5058823529411764
173,492.0816850662232,0,0.5545958215525769,0.3785038999280964,0.620599732912225,0.40955882242785663,0.5612866502783134,0.2847228765804873,0.563349904149452,0.5058823529411764,0.49411764705882355,0.49411764705882355,0.5098039215686274,0.5098039215686274,0.5019607843137255,0.5058823529411764,0.5058823529411764
174,492.0844479799271,0,0.5602183770153784,0.38787483515619015,0.6155475828409506,0.4102384346004633,0.5617089055060143,0.29550784464855084,0.5575354068909063,0.49019607843137253,0.5058823529411764,0.49411764705882355,0.5058823529411764,0.5058823529411764,0.4980392156862745,0.5098039215686274,0.4980392156862745
175,492.1123570203781,0,0.5660039051849413,0.3944752128413073,0.619703382440943,0.4110677353476193,0.5622740021545967,0.3031041902467722,0.562318298341145,0.5019607843137255,0.4980392156862745,0.5058823529411764,0.48627450980392156,0.49411764705882355,0.4980392156862745,0.4980392156862745,0.49019607843137253
176,492.1415569782257,0,0.5726042963876598,0.39594197270933146,0.6224739199578437,0.41205491628514357,0.5629988689231992,0.30479227771671147,0.5655068977630646,0.5019607843137255,0.49019607843137253,0.4980392156862745,0.5058823529411764,0.5058823529411764,0.5019607843137255,0.49411764705882355,0.49411764705882355
177,492.1440130472183,0,0.5749673993840714,0.39007494992563146,0.624429589768838,0.4132164163438197,0.5637952514749229,0.2980399470435566,0.5677576695323557,0.5098039215686274,0.5058823529411764,0.49411764705882355,0.5098039215686274,0.4980392156862745,0.5019607843137255,0.5058823529411764,0.49411764705882355
178,492.17207896709436,0,0.5693448439212698,0.3864895647289001,0.624674049746842,0.4143630620163898,0.5645590942012771,0.2939135430169308,0.5680390174440123,0.4980392156862745,0.5019607843137255,0.5019607843137255,0.5019607843137255,0.5058823529411764,0.5019607843137255,0.48627450980392156,0.49411764705882355
179,492.2013829946518,0,0.5695078164611473,0.38958604665802005,0.6294002554058973,0.4154078627603767,0.5652260434610834,0.29747727042684563,0.5734783867145627,0.5098039215686274,0.49411764705882355,0.49411764705882355,0.49411764705882355,0.5254901960784314,0.5058823529411764,0.5019607843137255,0.5019607843137255
180,492.203999042511,0,0.5787972560738004,0.3944752128413073,0.624674049746842,0.4164035637466165,0.5658480185412855,0.3031041902467722,0.5680390174440123,0.49411764705882355,0.5019607843137255,0.49019607843137253,0.49411764705882355,0.4980392156862745,0.4980392156862745,0.4980392156862745,0.4980392156862745
181,492.23265898227686,0,0.5845827852446671,0.39390482013296174,0.6191329797195595,0.4174374397752981,0.5664907175452119,0.30244772779174206,0.5616618243621536,0.4980392156862745,0.49019607843137253,0.5098039215686274,0.5058823529411764,0.4823529411764706,0.49411764705882355,0.49411764705882355,0.49019607843137253
182,492.2624219655991,0,0.5861310245403873,0.3963494032246054,0.6231258087822821,0.4186980574250515,0.567269503008042,0.30526118770170535,0.5662571537390549,0.4823529411764706,0.49019607843137253,0.49019607843137253,0.49019607843137253,0.4745098039215686,0.5215686274509804,0.5058823529411764,0.5019607843137255
183,492.292209982872,0,0.5916720928988302,0.4019719576861031,0.6203552746030607,0.42006202580099694,0.5680510715075243,0.3117321608599027,0.5630685581584557,0.5019607843137255,0.5019607843137255,0.5058823529411764,0.5176470588235295,0.49019607843137253,0.4823529411764706,0.49411764705882355,0.5058823529411764
184,492.2943490743637,0,0.5941981687688873,0.39863102412317747,0.6157105550470601,0.42143358078479326,0.5687427339023226,0.30788709514163237,0.5577229708849039,0.4980392156862745,0.5098039215686274,0.49019607843137253,0.49019607843137253,0.48627450980392156,0.49411764705882355,0.4980392156862745,0.4823529411764706
185,492.3221520185471,0,0.5977020812132812,0.40009777397816365,0.6219850033395151,0.4228752302631516,0.5694815350607879,0.30957517108761035,0.5649442057810721,0.49411764705882355,0.5098039215686274,0.4980392156862745,0.4980392156862745,0.49411764705882355,0.5098039215686274,0.5254901960784314,0.4980392156862745
186,492.3246840238571,0,0.6012874780918901,0.40352020031950264,0.6225554060608985,0.42425577585741636,0.5701878117591653,0.31351402648552024,0.5656006797600635,0.48627450980392156,0.48627450980392156,0.4980392156862745,0.5019607843137255,0.5215686274509804,0.47843137254901963,0.4823529411764706,0.5019607843137255
187,492.35297000408167,0,0.5984354561407742,0.4058833006457709,0.6222294599798397,0.42551267895031314,0.5707595500507726,0.31623370823980523,0.5652255498514082,0.49411764705882355,0.4980392156862745,0.4980392156862745,0.4980392156862745,0.49411764705882355,0.4980392156862745,0.48627450980392156,0.5019607843137255
188,492.382719039917,0,0.5990873483028918,0.4070241110950569,0.6222294599798397,0.4267084762384561,0.5713339081229138,0.3175466619597687,0.5652255498514082,0.5098039215686274,0.49411764705882355,0.5137254901960784,0.49019607843137253,0.5058823529411764,0.5098039215686274,0.5058823529411764,0.48627450980392156
189,492.3846989870072,0,0.6048728749704991,0.41077248351745466,0.6193774413664032,0.42788283127595417,0.5719177062400137,0.32186064726633384,0.5619431741944704,0.4980392156862745,0.49019607843137253,0.4980392156862745,0.5019607843137255,0.5098039215686274,0.49411764705882355,0.5176470588235295,0.5098039215686274
190,492.4129819869995,0,0.604139500043006,0.4075945121476007,0.6218220277957262,0.4289964896093243,0.5724217585449694,0.3182031340180999,0.564756637945754,0.4980392156862745,0.5098039215686274,0.4980392156862745,0.49411764705882355,0.5019607843137255,0.49411764705882355,0.5058823529411764,0.5176470588235295
191,492.47201097011566,0,0.607480436943611,0.404416549121945,0.6202737885000058,0.4299666784659226,0.5728822368316174,0.314545630373167,0.5629747761614569,0.4980392156862745,0.4980392156862745,0.5058823529411764,0.5019607843137255,0.48627450980392156,0.4980392156862745,0.49411764705882355,0.49019607843137253
192,492.4742410182953,0,0.6129400208678387,0.404172089143941,0.6219850033395151,0.4309997170867502,0.5732556650353219,0.31426428246151045,0.5649442057810721,0.4980392156862745,0.49411764705882355,0.4980392156862745,0.49019607843137253,0.49411764705882355,0.4980392156862745,0.5058823529411764,0.49411764705882355
193,492.50289607048035,0,0.6263852629175115,0.41264666722539417,0.6154660984067354,0.43334397507136696,0.5739945718300992,0.3240176370386262,0.5574416268145678,0.5058823529411764,0.5058823529411764,0.5058823529411764,0.5137254901960784,0.5019607843137255,0.49019607843137253,0.5098039215686274,0.4980392156862745
194,492.50708198547363,0,0.625977830733398,0.4170469268033907,0.6087842179301669,0.43444552748339926,0.5742295377182134,0.32908187640052144,0.5497514800127455,0.4980392156862745,0.4980392156862745,0.5176470588235295,0.5019607843137255,0.49411764705882355,0.5019607843137255,0.4823529411764706,0.49019607843137253
195,492.53243696689606,0,0.6239406731505093,0.4229954323524661,0.594605600953001,0.4357237575873281,0.5743344825923842,0.3359279852293547,0.533433372201094,0.4745098039215686,0.4666666666666667,0.47843137254901963,0.4823529411764706,0.5058823529411764,0.4980392156862745,0.49411764705882355,0.49019607843137253
196,492.5626499652863,0,0.6188885214103952,0.426499339790341,0.5897164214189963,0.43704617440017307,0.5741499686068088,0.33996061686228274,0.5278064370158856,0.5058823529411764,0.5019607843137255,0.4980392156862745,0.5058823529411764,0.5215686274509804,0.4980392156862745,0.49019607843137253,0.5176470588235295
197,492.5917130708695,0,0.6087027318271121,0.4187581399740602,0.5908572301994427,0.43818445367684467,0.5736326157298615,0.33105130409947636,0.5291193888151889,0.4823529411764706,0.4666666666666667,0.4823529411764706,0.49411764705882355,0.5098039215686274,0.5019607843137255,0.49411764705882355,0.4980392156862745
198,492.6220819950104,0,0.6021838268943325,0.42992176780051977,0.5982724839346647,0.4390877977959656,0.5724711099092047,0.34389947418085287,0.5376535716693399,0.5019607843137255,0.5215686274509804,0.5019607843137255,0.5058823529411764,0.5019607843137255,0.5137254901960784,0.48627450980392156,0.5019607843137255
199,492.62422001361847,0,0.6027542312845556,0.4216101619251761,0.6078878691277245,0.4392187138375694,0.5704404131493777,0.33433368359773463,0.5487198761250988,0.5019607843137255,0.5098039215686274,0.49019607843137253,0.48627450980392156,0.5058823529411764,0.5058823529411764,0.5176470588235295,0.5019607843137255
200,492.6527379751205,0,0.593057359988441,0.4341590518347273,0.621903513898781,0.4372829092163457,0.5642997128805044,0.34877614570743004,0.5648504199427528,0.5058823529411764,0.49019607843137253,0.49019607843137253,0.4980392156862745,0.5137254901960784,0.5215686274509804,0.4823529411764706,0.47843137254901963
201,492.6824090480805,0,0.585886566231223,0.4352998606151737,0.6273630978230087,0.4357003178500591,0.5606422073149112,0.3500890975067334,0.5711338310276127,0.5137254901960784,0.4980392156862745,0.49019607843137253,0.5294117647058824,0.4980392156862745,0.5019607843137255,0.5490196078431373,0.49019607843137253
202,492.68466007709503,0,0.589471963109832,0.4269067753121339,0.6240221592535641,0.43401112792115615,0.5565872115144348,0.34042953260925723,0.5672887595473619,0.4823529411764706,0.49411764705882355,0.49411764705882355,0.5019607843137255,0.48627450980392156,0.4980392156862745,0.5019607843137255,0.4823529411764706
203,492.7414300441742,0,0.58050846841005,0.4198989504233462,0.6322522756881735,0.43220866897670873,0.5521298604467494,0.33236425781943985,0.5767607642921608,0.5058823529411764,0.4980392156862745,0.5019607843137255,0.5176470588235295,0.49019607843137253,0.49019607843137253,0.5098039215686274,0.4980392156862745
204,492.74380707740784,0,0.5722783511410208,0.42666231199645055,0.6321707895851189,0.430119879928006,0.5472550404366199,0.34014818085628024,0.5766669822951621,0.5019607843137255,0.4980392156862745,0.5058823529411764,0.5137254901960784,0.49019607843137253,0.5019607843137255,0.44313725490196076,0.5019607843137255
205,492.77276396751404,0,0.5439211146834293,0.41509125699239646,0.6426010374775663,0.42563102235014677,0.5369968998623463,0.3268311046312304,0.5886711086415689,0.48627450980392156,0.5019607843137255,0.49411764705882355,0.4627450980392157,0.5098039215686274,0.48627450980392156,0.5529411764705883,0.5098039215686274
206,492.8020889759064,0,0.5382170724500371,0.4086538415003509,0.6362451047508961,0.4236143156793289,0.5319915018468108,0.31942231150304534,0.5813560936690622,0.5019607843137255,0.49411764705882355,0.49411764705882355,0.4745098039215686,0.49019607843137253,0.49019607843137253,0.4627450980392157,0.5058823529411764
207,492.8047890663147,0,0.5354465382708158,0.4012385860962893,0.6322522756881735,0.42207915117574174,0.5272083760760259,0.31088812672823407,0.5767607642921608,0.5098039215686274,0.5019607843137255,0.5019607843137255,0.4823529411764706,0.4980392156862745,0.5098039215686274,0.5294117647058824,0.48627450980392156
208,492.86112201213837,0,0.5337353267689859,0.4012385860962893,0.6303780919802341,0.42083557554407985,0.5226485981197121,0.31088812672823407,0.5746037745198685,0.5058823529411764,0.4980392156862745,0.5019607843137255,0.49019607843137253,0.5019607843137255,0.48627450980392156,0.48627450980392156,0.5098039215686274
209,492.86306607723236,0,0.5250162903783683,0.4014015549647196,0.6372229413252329,0.419933408789671,0.5182523749443728,0.3110756868809112,0.582481481474368,0.4980392156862745,0.49019607843137253,0.5019607843137255,0.49019607843137253,0.49019607843137253,0.49019607843137253,0.5176470588235295,0.5019607843137255
210,492.89206802845,0,0.4989406706472498,0.3817633607386845,0.6567796594612512,0.41835113625298015,0.5104449439868258,0.28847417566704053,0.6049892222152012,0.5058823529411764,0.5019607843137255,0.4980392156862745,0.5098039215686274,0.5176470588235295,0.5098039215686274,0.5019607843137255,0.5098039215686274
211,492.9214000701904,0,0.5039928223873639,0.37304432434806695,0.6461864326873354,0.4179765614151271,0.5067287551452087,0.2784394750989284,0.5927975241921559,0.5058823529411764,0.4980392156862745,0.4980392156862745,0.5019607843137255,0.49019607843137253,0.5019607843137255,0.5058823529411764,0.47843137254901963
212,492.9512170553208,0,0.511082130041527,0.3816003818572163,0.6350228132050744,0.4179771011206476,0.5029305639077599,0.28828660399040207,0.5799493637140806,0.49019607843137253,0.49019607843137253,0.49019607843137253,0.5019607843137255,0.48627450980392156,0.4980392156862745,0.49411764705882355,0.4980392156862745
213,492.95287096500397,0,0.5135267198085294,0.4040905997032069,0.6338005166527335,0.41826737049900486,0.4990270807328394,0.31417049662319124,0.5785426279971183,0.5098039215686274,0.5137254901960784,0.5019607843137255,0.49019607843137253,0.5019607843137255,0.49411764705882355,0.5019607843137255,0.4980392156862745
214,492.98157000541687,0,0.5032594441221915,0.41052802187061105,0.6338005166527335,0.41863468139992316,0.49498266667537366,0.3215792974340172,0.5785426279971183,0.49411764705882355,0.5137254901960784,0.5176470588235295,0.5019607843137255,0.48627450980392156,0.5019607843137255,0.4980392156862745,0.5058823529411764
215,493.01236307620997,0,0.4806877368354668,0.4124022055785505,0.6470012987244024,0.41915736410896826,0.49152431603849234,0.3237362872063095,0.5937353499241244,0.4980392156862745,0.48627450980392156,0.49019607843137253,0.4980392156862745,0.49411764705882355,0.4980392156862745,0.49019607843137253,0.4980392156862745
216,493.0147520303726,0,0.46439047450351767,0.40213493656757127,0.6543350663565696,0.41980417140509546,0.48840614780287034,0.31191973253654104,0.6021757507812766,0.5019607843137255,0.49411764705882355,0.5058823529411764,0.5019607843137255,0.5176470588235295,0.49019607843137253,0.5019607843137255,0.5098039215686274
217,493.041944026947,0,0.4753911234485089,0.3942307612075016,0.6434159018457933,0.4206476389420005,0.48517056903208133,0.3028228519384167,0.589608932452877,0.49411764705882355,0.49411764705882355,0.49411764705882355,0.4980392156862745,0.4980392156862745,0.5019607843137255,0.5019607843137255,0.49411764705882355
218,493.0444860458374,0,0.4929921701046933,0.401483037730095,0.6333115983655652,0.4218578046892151,0.4817010884189375,0.31116946503658954,0.5779799340944654,0.5019607843137255,0.4980392156862745,0.5058823529411764,0.4980392156862745,0.49019607843137253,0.49019607843137253,0.49411764705882355,0.4980392156862745
219,493.0721490383148,0,0.475880043404517,0.4131355838437229,0.6474902136738914,0.4230166427128327,0.47823083185906656,0.3245803290206189,0.5942980399854567,0.5058823529411764,0.5019607843137255,0.49019607843137253,0.5098039215686274,0.5019607843137255,0.4980392156862745,0.5098039215686274,0.5098039215686274
220,493.1013929843903,0,0.4533083361177923,0.4253585310098946,0.6625651844600188,0.42404995022609054,0.4750896197342459,0.3386476650629794,0.6116477574467358,0.5019607843137255,0.5019607843137255,0.49411764705882355,0.5058823529411764,0.5058823529411764,0.5176470588235295,0.5058823529411764,0.48627450980392156
221,493.1037139892578,0,0.45958278274140757,0.4160690918978936,0.6504237233969018,0.42534970324839344,0.4718654527581929,0.3279564905158759,0.597674203401374,0.5019607843137255,0.5058823529411764,0.49019607843137253,0.4980392156862745,0.5098039215686274,0.5019607843137255,0.5215686274509804,0.5098039215686274
222,493.161346077919,0,0.46903519739719757,0.4222620507496144,0.63665253526617,0.42681551463226175,0.4684894948529187,0.33508393957372484,0.5818250036540561,0.5019607843137255,0.49019607843137253,0.49019607843137253,0.5098039215686274,0.4823529411764706,0.4980392156862745,0.45098039215686275,0.49411764705882355
223,493.191076040268,0,0.47253910984159136,0.44181876554795335,0.6301336303333904,0.42830541877787237,0.4647035989139051,0.35759167647323764,0.5743224246875518,0.5019607843137255,0.5019607843137255,0.49411764705882355,0.4980392156862745,0.5019607843137255,0.4980392156862745,0.4980392156862745,0.49411764705882355
224,493.2514619827271,0,0.4336701318787192,0.43130703155245115,0.6549054690779531,0.4311992391112491,0.4573995566732091,0.345493768129832,0.6028322247602681,0.4980392156862745,0.49411764705882355,0.49411764705882355,0.48627450980392156,0.49411764705882355,0.4980392156862745,0.5058823529411764,0.5019607843137255
225,493.253476023674,0,0.41859516943679026,0.4212027314099021,0.6593057319936289,0.4324987097965003,0.4539988126478548,0.3338647736127407,0.6078964679634836,0.49411764705882355,0.5058823529411764,0.5137254901960784,0.5137254901960784,0.49019607843137253,0.49411764705882355,0.48627450980392156,0.5058823529411764
226,493.28199803829193,0,0.44287808822534486,0.4610495325963937,0.6125325886837251,0.4373178786768879,0.44157328192622247,0.37972428154343485,0.5540654633986506,0.49019607843137253,0.5019607843137255,0.48627450980392156,0.5019607843137255,0.49411764705882355,0.4980392156862745,0.4980392156862745,0.5058823529411764
227,493.2847900390625,0,0.43244784033289746,0.4699315478684795,0.6241851314596736,0.43870180655379204,0.43806877615339007,0.3899465537881853,0.5674763235413594,0.5019607843137255,0.4980392156862745,0.5098039215686274,0.5019607843137255,0.5058823529411764,0.4980392156862745,0.5058823529411764,0.5019607843137255
228,493.31212496757513,0,0.41134288623883825,0.4625977752297934,0.6361636186478413,0.4397685796506435,0.4352084367688887,0.3815061471690525,0.5812623116720634,0.5058823529411764,0.4980392156862745,0.4980392156862745,0.49411764705882355,0.49411764705882355,0.4980392156862745,0.5058823529411764,0.5019607843137255
229,493.3414840698242,0,0.40849086261888273,0.4481747016123027,0.6250814819309556,0.4408715629545363,0.43259547457881364,0.3649066952870648,0.5685079293496663,0.4980392156862745,0.5019607843137255,0.49411764705882355,0.48627450980392156,0.5058823529411764,0.4823529411764706,0.5019607843137255,0.5019607843137255
230,493.3440020084381,0,0.41582462858221025,0.44850064268684253,0.6112288076971691,0.4421842055275449,0.4300161777209945,0.36528181943373944,0.5525649476053497,0.5019607843137255,0.49019607843137253,0.5098039215686274,0.49411764705882355,0.5176470588235295,0.49019607843137253,0.5058823529411764,0.4980392156862745
231,493.37202298641205,0,0.4117503167541122,0.4569752207682957,0.6127770469928894,0.443614156264531,0.42758933902975543,0.3750351740108552,0.5543468093896469,0.4980392156862745,0.49411764705882355,0.4980392156862745,0.5019607843137255,0.49019607843137253,0.5098039215686274,0.49019607843137253,0.49411764705882355
232,493.4014049768448,0,0.40457951965921496,0.4629237229796918,0.621496083383507,0.44492787248660004,0.4253865760832091,0.381881278998368,0.5643815099577589,0.49411764705882355,0.5019607843137255,0.5019607843137255,0.48627450980392156,0.5098039215686274,0.4980392156862745,0.49019607843137253,0.5019607843137255
233,493.43109500408167,0,0.39691981262134757,0.46039764544079514,0.6276890439040674,0.4462282938986579,0.42341608049717444,0.3789740274881049,0.5715089609362681,0.5019607843137255,0.5019607843137255,0.49019607843137253,0.4980392156862745,0.49411764705882355,0.5058823529411764,0.49019607843137253,0.49019607843137253
234,493.4611240625382,0,0.3897490088510917,0.45322684667705815,0.62532594024012,0.447740544925875,0.4214936244644479,0.3707211867836297,0.5687892753406627,0.5058823529411764,0.49411764705882355,0.49019607843137253,0.5098039215686274,0.49411764705882355,0.5058823529411764,0.5176470588235295,0.5058823529411764
235,493.46329200267786,0,0.3893415783358177,0.4529009056025184,0.6183996014543871,0.449510323836757,0.41945333400684487,0.3703460626369551,0.5608177825478441,0.4980392156862745,0.4980392156862745,0.49019607843137253,0.5058823529411764,0.49411764705882355,0.5058823529411764,0.5019607843137255,0.5058823529411764
236,493.4655929803848,0,0.387711856274722,0.45583440865017,0.617014336033616,0.4515851708129559,0.4173079527048946,0.3737222183702314,0.5592234866782047,0.4980392156862745,0.49411764705882355,0.49411764705882355,0.5058823529411764,0.49411764705882355,0.5058823529411764,0.5019607843137255,0.5019607843137255
237,493.49137496948237,0,0.390482397129302,0.4586864322701256,0.6192959519256691,0.45388305253601097,0.4151865931002587,0.3770045997891499,0.5618493883561511,0.4980392156862745,0.5019607843137255,0.4980392156862745,0.5019607843137255,0.5098039215686274,0.49411764705882355,0.5058823529411764,0.48627450980392156
238,493.5214290618897,0,0.3940677823260334,0.45827900175485164,0.6170958204678312,0.4563566823514182,0.41314716886041275,0.376535689804156,0.5593172667545433,0.5019607843137255,0.5058823529411764,0.5019607843137255,0.4980392156862745,0.5098039215686274,0.48627450980392156,0.5019607843137255,0.5019607843137255
239,493.52382504940033,0,0.3987939929916077,0.4579530556737928,0.6117177259843375,0.4589125260273467,0.41122539082074233,0.3761605598955007,0.5531276415080025,0.48627450980392156,0.49411764705882355,0.4980392156862745,0.48627450980392156,0.5058823529411764,0.4980392156862745,0.4980392156862745,0.49019607843137253
240,493.55208802223206,0,0.40229790543600147,0.4588494011385559,0.6100879989167228,0.46138608669898623,0.4094907465471811,0.3771921599418271,0.5512519958060463,0.4980392156862745,0.49411764705882355,0.5019607843137255,0.4980392156862745,0.49019607843137253,0.49411764705882355,0.4823529411764706,0.4980392156862745
241,493.6113820075989,0,0.40246087764211114,0.4573826512835697,0.6155475828409506,0.46363616510993955,0.40800024123492307,0.37550408399584906,0.5575354068909063,0.4980392156862745,0.5019607843137255,0.5019607843137255,0.5058823529411764,0.5098039215686274,0.4980392156862745,0.4980392156862745,0.4980392156862745
242,493.6143400669098,0,0.40099412444944554,0.45322684667705815,0.6183996014543871,0.4656649911467168,0.40670141397084403,0.3707211867836297,0.5608177825478441,0.4980392156862745,0.5019607843137255,0.4980392156862745,0.4980392156862745,0.5019607843137255,0.5019607843137255,0.5058823529411764,0.49019607843137253
243,493.6413300037384,0,0.4005052061622772,0.441166876723515,0.6162809594372832,0.4693217015589807,0.40474143015816827,0.35684142049724743,0.5583794467845555,0.49019607843137253,0.4980392156862745,0.4980392156862745,0.48627450980392156,0.4823529411764706,0.49411764705882355,0.5058823529411764,0.49019607843137253
244,493.6714290380478,0,0.40466100909994906,0.44002606794306864,0.6133474530519523,0.4710210287325006,0.40413012242480284,0.3555284686979441,0.5550032872099587,0.5098039215686274,0.4980392156862745,0.48627450980392156,0.4980392156862745,0.5058823529411764,0.5058823529411764,0.49019607843137253,0.4980392156862745
245,493.6737170219421,0,0.4093057236494306,0.4392112035748415,0.6087842179301669,0.47268613358230216,0.4037685370119867,0.35459064488663594,0.5497514800127455,0.49411764705882355,0.5019607843137255,0.49411764705882355,0.5058823529411764,0.49411764705882355,0.49019607843137253,0.48627450980392156,0.4980392156862745
246,493.7014060020447,0,0.411424372341893,0.4388852558249429,0.6097620545045036,0.47430350042244923,0.4036849018629059,0.35421551305732035,0.5508768678180512,0.4980392156862745,0.5058823529411764,0.5058823529411764,0.4980392156862745,0.5098039215686274,0.5176470588235295,0.49019607843137253,0.5058823529411764
247,493.70382702350616,0,0.4169654407003359,0.4336701318787192,0.6116362398812828,0.47602663994132,0.403883605686153,0.34821344988411695,0.5530338595110038,0.5098039215686274,0.4980392156862745,0.5058823529411764,0.4980392156862745,0.49411764705882355,0.5019607843137255,0.5098039215686274,0.5098039215686274
248,493.7326300144196,0,0.4234028628677401,0.42918838786650765,0.6148956923476726,0.47799642411481097,0.40429563339820684,0.3430554304458832,0.5567851489942559,0.4980392156862745,0.5058823529411764,0.49411764705882355,0.5098039215686274,0.5098039215686274,0.5019607843137255,0.49019607843137253,0.49411764705882355
249,493.7612659931183,0,0.4258474459593837,0.4239732639202839,0.6196218980067278,0.48015334359093936,0.40485795853409834,0.33705336727267976,0.5622245182648063,0.4980392156862745,0.4980392156862745,0.5019607843137255,0.48627450980392156,0.5098039215686274,0.5019607843137255,0.5019607843137255,0.5019607843137255
250,493.7912210226059,0,0.4285364973732297,0.422913942911732,0.6239406731505093,0.482521255274373,0.4055489794283846,0.3358341993910355,0.5671949775503631,0.4980392156862745,0.49411764705882355,0.49019607843137253,0.5098039215686274,0.5019607843137255,0.49411764705882355,0.49411764705882355,0.49019607843137253
251,493.79285502433777,0,0.4341590518347273,0.41574314581683475,0.6223109444140549,0.4851826046572553,0.4063249722512615,0.3275813606072206,0.5653193299277467,0.49411764705882355,0.5019607843137255,0.5019607843137255,0.4980392156862745,0.5058823529411764,0.5058823529411764,0.5058823529411764,0.4980392156862745
252,493.8213720321655,0,0.4379074225882855,0.41509125699239646,0.6189700075134499,0.48805457191076695,0.4071565566634137,0.3268311046312304,0.561474260368156,0.49411764705882355,0.49019607843137253,0.5058823529411764,0.5058823529411764,0.49019607843137253,0.49019607843137253,0.5058823529411764,0.4745098039215686
253,493.85116505622864,0,0.44206322719479696,0.4121577489382258,0.6175032543207845,0.4909968111278443,0.40816178796564245,0.32345494313597334,0.5597861805808576,0.5098039215686274,0.49019607843137253,0.49411764705882355,0.4980392156862745,0.4980392156862745,0.4980392156862745,0.49411764705882355,0.49411764705882355
254,493.8528720140457,0,0.4441003797711667,0.4110984245919946,0.6173402821146748,0.493939385807435,0.40938647198342554,0.32223577141300863,0.55959861658686,0.5058823529411764,0.49411764705882355,0.5058823529411764,0.5137254901960784,0.48627450980392156,0.4980392156862745,0.5019607843137255,0.5019607843137255
255,493.88251101970667,0,0.448337670480733,0.4106909940767206,0.6175847404238393,0.49688176166028014,0.4108707716425275,0.3217668614280147,0.5598799625778563,0.49411764705882355,0.5098039215686274,0.5019607843137255,0.49411764705882355,0.5058823529411764,0.5019607843137255,0.5058823529411764,0.48627450980392156
256,493.9114680290222,0,0.45257495952145954,0.40808343210360876,0.6178291987330036,0.4997070238352012,0.41261671131881555,0.318765829841413,0.5601613085688527,0.49019607843137253,0.5058823529411764,0.49411764705882355,0.49019607843137253,0.49411764705882355,0.5058823529411764,0.48627450980392156,0.5019607843137255
257,493.9140430688858,0,0.45078226358541457,0.4022164193329467,0.6227183782670082,0.5024267526456615,0.41465664645427874,0.3120135106922194,0.565788243754061,0.4980392156862745,0.5019607843137255,0.5019607843137255,0.4745098039215686,0.49019607843137253,0.5098039215686274,0.5058823529411764,0.5019607843137255
258,493.9719309806824,0,0.44776727109702874,0.3906453593223736,0.6267112073297307,0.5049822982351245,0.4167439066574501,0.29869642870518887,0.5703835731309623,0.49019607843137253,0.4823529411764706,0.4823529411764706,0.4980392156862745,0.4745098039215686,0.4549019607843137,0.47058823529411764,0.49411764705882355
259,493.9736779928208,0,0.44524119188929234,0.3854302353761499,0.6297261998181165,0.5076668251851565,0.4191120634171273,0.2926943655319854,0.5738535147025579,0.5019607843137255,0.4980392156862745,0.5019607843137255,0.4980392156862745,0.5019607843137255,0.48627450980392156,0.5058823529411764,0.5137254901960784
260,494.0319150686264,0,0.44597457015446473,0.38111146190120826,0.6364080786258454,0.5131884718900814,0.4245273975457419,0.287723908167089,0.58154365958372,0.5098039215686274,0.4980392156862745,0.4980392156862745,0.49019607843137253,0.49019607843137253,0.5019607843137255,0.49411764705882355,0.5019607843137255
261,494.0340050458908,0,0.4405149845613974,0.3830671417252404,0.6356747020295126,0.5162480229203907,0.42772827190709845,0.2899746914603414,0.5806996196900707,0.5058823529411764,0.5058823529411764,0.5058823529411764,0.5137254901960784,0.5333333333333333,0.5176470588235295,0.5254901960784314,0.49019607843137253
262,494.035462975502,0,0.44955996536423415,0.3816003818572163,0.6316003868637352,0.5195765001844794,0.4314466316709571,0.28828660399040207,0.5760105083161706,0.4980392156862745,0.4980392156862745,0.49411764705882355,0.5098039215686274,0.4980392156862745,0.5137254901960784,0.5058823529411764,0.5176470588235295
263,494.06128406524664,0,0.45982724105057193,0.3912157687191158,0.6275260683602786,0.5228584686614516,0.43565574508843974,0.2993529103668211,0.5713213931009501,0.4980392156862745,0.49019607843137253,0.49411764705882355,0.5098039215686274,0.49411764705882355,0.5019607843137255,0.5137254901960784,0.5019607843137255
264,494.091197013855,0,0.46773141641064164,0.40001628787510884,0.6348598376612854,0.5259083311133702,0.44037617666847273,0.30948138909061157,0.5797617958787625,0.49411764705882355,0.4980392156862745,0.5019607843137255,0.4980392156862745,0.4823529411764706,0.47843137254901963,0.49411764705882355,0.48627450980392156
265,494.0928779840469,0,0.47987287580491894,0.40001628787510884,0.6373044274282877,0.5287812373776611,0.44528708396338995,0.30948138909061157,0.5825752634713668,0.49411764705882355,0.49411764705882355,0.49411764705882355,0.4980392156862745,0.4980392156862745,0.5176470588235295,0.5098039215686274,0.4980392156862745
266,494.1513890028,0,0.4891623132480803,0.39691981262134757,0.6319263312759544,0.5317809494706949,0.4502244752420176,0.30591766936333764,0.5763856363041657,0.5058823529411764,0.5019607843137255,0.49019607843137253,0.4980392156862745,0.5176470588235295,0.48627450980392156,0.49019607843137253,0.4980392156862745
267,494.1537150144577,0,0.498859184544195,0.3997718262282651,0.6311114702454066,0.5349922261277781,0.45530132373822707,0.3092000392582948,0.575447816334178,0.49019607843137253,0.4823529411764706,0.47843137254901963,0.5019607843137255,0.49019607843137253,0.5058823529411764,0.48627450980392156,0.4980392156862745
268,494.18166506290436,0,0.5167861739437588,0.39480116392888515,0.6330671400564007,0.5409964730916464,0.46569790934214894,0.30347932591740817,0.577698588103469,0.4980392156862745,0.4980392156862745,0.5058823529411764,0.5019607843137255,0.47843137254901963,0.4823529411764706,0.49411764705882355,0.5019607843137255
269,494.18398201465607,0,0.5281942567417034,0.3991199390726665,0.6297261998181165,0.5435968837672137,0.47105653021592253,0.30844978520296484,0.5738535147025579,0.4980392156862745,0.5019607843137255,0.49411764705882355,0.47843137254901963,0.49019607843137253,0.49019607843137253,0.4980392156862745,0.5019607843137255
270,494.2120879888535,0,0.5363428887420978,0.40677965111705283,0.6235332409663956,0.5459886223930159,0.4764606035136942,0.31726531404811215,0.566726065644709,0.5058823529411764,0.4980392156862745,0.5098039215686274,0.5058823529411764,0.5333333333333333,0.4980392156862745,0.5058823529411764,0.49019607843137253
271,494.2719850540161,0,0.5448174641534075,0.41166883398873677,0.6250814819309556,0.5482279604720445,0.48186475171721427,0.32289225307464087,0.5685079293496663,0.49411764705882355,0.49411764705882355,0.49411764705882355,0.5019607843137255,0.4745098039215686,0.4980392156862745,0.4980392156862745,0.49019607843137253
272,494.27437007427216,0,0.5497066430198762,0.41329855604983246,0.6292372831997878,0.550198079608677,0.487386128761445,0.3247678930146164,0.5732908227205653,0.4823529411764706,0.4823529411764706,0.5019607843137255,0.4980392156862745,0.5254901960784314,0.47843137254901963,0.5058823529411764,0.4980392156862745
273,494.3018749952316,0,0.5719524058943818,0.42348434563311554,0.6226368921639533,0.5537497529550798,0.49883949676397565,0.3364906733700269,0.5656944617570622,0.5176470588235295,0.5098039215686274,0.5098039215686274,0.5254901960784314,0.4823529411764706,0.5019607843137255,0.5176470588235295,0.5019607843137255
274,494.3045300245285,0,0.5814048180469122,0.4292698739695624,0.6203552746030607,0.5553311746392953,0.5044780530958834,0.34314921244288193,0.5630685581584557,0.5058823529411764,0.5019607843137255,0.5058823529411764,0.49411764705882355,0.5058823529411764,0.5215686274509804,0.5137254901960784,0.5098039215686274
275,494.3322789669037,0,0.5966427585358896,0.4371740443231132,0.6102509744605117,0.5566337145395708,0.5100232111787034,0.3522460872790257,0.5514395636413644,0.49411764705882355,0.5098039215686274,0.5019607843137255,0.49411764705882355,0.47843137254901963,0.49411764705882355,0.4980392156862745,0.5176470588235295
276,494.36130702495575,0,0.6078063830246697,0.442959577666079,0.5963983002267252,0.5576407685483439,0.5152981853794351,0.35890463211386137,0.5354965818970476,0.49019607843137253,0.48627450980392156,0.49019607843137253,0.47058823529411764,0.5215686274509804,0.5294117647058824,0.4823529411764706,0.5098039215686274
277,494.3641940355301,0,0.6152216367598917,0.45542697813489613,0.5860495384373325,0.5583450976972629,0.5203276281402074,0.37325330838523757,0.5235862375476396,0.49411764705882355,0.4980392156862745,0.49411764705882355,0.47058823529411764,0.4588235294117647,0.47843137254901963,0.49411764705882355,0.48627450980392156
278,494.4215240478516,0,0.6364080786258454,0.46797586804444735,0.5695893028979702,0.5587557482959423,0.5248059489761249,0.38769577049493303,0.5046422249849852,0.5176470588235295,0.5019607843137255,0.4980392156862745,0.5019607843137255,0.48627450980392156,0.4980392156862745,0.5058823529411764,0.5176470588235295
279,494.42359101772314,0,0.6498533240131975,0.4687907357503538,0.5503585335131541,0.5587693830628115,0.5286169268168918,0.3886335981475616,0.4825096172258637,0.49411764705882355,0.47843137254901963,0.49019607843137253,0.5058823529411764,0.5529411764705883,0.5176470588235295,0.48627450980392156,0.4666666666666667
280,494.4519729614258,0,0.6501792650877374,0.478569094818363,0.5503585335131541,0.557782528637524,0.5343835055237227,0.3998874685179783,0.4825096172258637,0.49019607843137253,0.49411764705882355,0.5019607843137255,0.4980392156862745,0.49411764705882355,0.5215686274509804,0.5568627450980392,0.49411764705882355
281,494.5120049715042,1,0.654009118606671,0.47612450338252105,0.5429432789435124,0.5569266017778015,0.5362708019505457,0.3970739990047139,0.47397543341138254,0.49019607843137253,0.49019607843137253,0.4980392156862745,0.5019607843137255,0.4980392156862745,0.4823529411764706,0.47843137254901963,0.49019607843137253
282,494.5140050649643,1,0.653520203657182,0.4664276354240857,0.5429432789435124,0.5558349753377625,0.537430404396929,0.3859139163932767,0.47397543341138254,0.4980392156862745,0.5098039215686274,0.49411764705882355,0.5137254901960784,0.5019607843137255,0.49411764705882355,0.5019607843137255,0.5058823529411764
283,494.5413440465927,1,0.663461533262461,0.4854139408256824,0.5371577497726456,0.5538539218825236,0.5384972197483052,0.40776517163115716,0.4673168933781974,0.5058823529411764,0.49411764705882355,0.49411764705882355,0.4980392156862745,0.49411764705882355,0.4549019607843137,0.49411764705882355,0.5294117647058824
284,494.5440870523453,1,0.6694915215769119,0.4902216342566322,0.5278683106606445,0.5531394209171037,0.538239751405107,0.4132983248193667,0.45662571883109393,0.4980392156862745,0.49411764705882355,0.5058823529411764,0.5058823529411764,0.5137254901960784,0.49411764705882355,0.4980392156862745,0.5019607843137255
285,494.5722060203552,1,0.6692470599300683,0.49062906477190615,0.5231421050015892,0.5527164800137059,0.5370785298421621,0.41376723480436056,0.4511863495605433,0.5372549019607843,0.5294117647058824,0.5058823529411764,0.5254901960784314,0.5372549019607843,0.5372549019607843,0.5490196078431373,0.5372549019607843
286,494.6015889644623,1,0.6690026032897435,0.49079204031569507,0.5250977764814231,0.5527789053120276,0.5349593674728126,0.4139548026396786,0.4534371232504946,0.48627450980392156,0.49411764705882355,0.49411764705882355,0.48627450980392156,0.48627450980392156,0.49411764705882355,0.4823529411764706,0.49411764705882355
287,494.6314749717712,1,0.6666394979569564,0.48296935439635946,0.5258311530777559,0.5532356536765374,0.5316179084663278,0.40495170787987345,0.4542811631441438,0.4980392156862745,0.5215686274509804,0.5058823529411764,0.4980392156862745,0.5176470588235295,0.49411764705882355,0.4627450980392157,0.49019607843137253
288,494.6327279806137,1,0.6651727464331306,0.46202737250840986,0.5282757428447582,0.5535981744508784,0.5268929364455456,0.3808496731900611,0.457094630736748,0.5137254901960784,0.5450980392156862,0.5176470588235295,0.4980392156862745,0.49411764705882355,0.4980392156862745,0.5058823529411764,0.48627450980392156
289,494.66164004802704,1,0.6597946519496369,0.4485821321275766,0.5313722231050384,0.5538538412147945,0.5213351911239378,0.36537560527205865,0.4606583562260026,0.4627450980392157,0.2823529411764706,0.4,0.5215686274509804,0.5019607843137255,0.5098039215686274,0.4980392156862745,0.5098039215686274
290,494.6909520626068,1,0.6474087309085159,0.4274771746958381,0.5356909965799801,0.5539743357540694,0.5150060521924049,0.3410860027469283,0.465628813590899,0.5058823529411764,0.615686274509804,0.5607843137254902,0.5019607843137255,0.4980392156862745,0.5019607843137255,0.49019607843137253,0.4980392156862745
291,494.6931020021439,1,0.6344524071460115,0.37231093606985655,0.5642926925149236,0.5539357881035459,0.508334739576721,0.27759542176065766,0.498546379430651,0.5764705882352941,0.5529411764705883,0.6431372549019608,0.49411764705882355,0.5333333333333333,0.5294117647058824,0.5098039215686274,0.5568627450980392
292,494.72152304649353,1,0.6157920394812753,0.3125814790104862,0.6240221592535641,0.5535964612219663,0.5019459756694605,0.2088530527837761,0.5672887595473619,0.47058823529411764,0.615686274509804,0.5607843137254902,0.6,0.5019607843137255,0.5215686274509804,0.5568627450980392,0.4666666666666667
293,494.75147902965546,1,0.6270371517419498,0.2545632167645491,0.6304595780832889,0.5529295964712094,0.49681143956748275,0.14208009037858713,0.5746975565168673,0.5019607843137255,0.4196078431372549,0.47843137254901963,0.4392156862745098,0.5019607843137255,0.4980392156862745,0.4666666666666667,0.5411764705882353
294,494.7531300783157,1,0.6460234638189052,0.36155474710286933,0.5662483639947575,0.5535878220923173,0.49361099946740095,0.26521617126757624,0.5007971531206022,0.49411764705882355,0.38823529411764707,0.48627450980392156,0.5254901960784314,0.4980392156862745,0.47843137254901963,0.38823529411764707,0.4980392156862745
295,494.7820520401001,1,0.5396838256427027,0.48940677322608434,0.5515808280628873,0.5538435503173603,0.4897190477443478,0.412360504849379,0.48391635063803373,0.5098039215686274,0.5098039215686274,0.4235294117647059,0.5333333333333333,0.4823529411764706,0.49019607843137253,0.6901960784313725,0.4627450980392157
296,494.8110910654068,1,0.3627770386486911,0.520290084719313,0.7908246327543094,0.5524260665858325,0.4864012992882225,0.44790397198294535,0.7592609914102313,0.48627450980392156,0.49411764705882355,0.44313725490196076,0.37254901960784315,0.5372549019607843,0.4117647058823529,0.4117647058823529,0.3333333333333333
297,494.81336104869837,1,0.5048076850867514,0.4030312820323343,0.7632822698435633,0.5512870382516768,0.48257998253351597,0.3129513325828674,0.7275626072808772,0.4745098039215686,0.5568627450980392,0.3686274509803922,0.7098039215686275,0.4588235294117647,0.6862745098039216,0.4588235294117647,0.6941176470588235
298,494.8414579629898,1,0.5211049474187005,0.2869132897946416,0.6418676592123937,0.5529639570824634,0.4786292516934942,0.17931164690275292,0.5878270668272595,0.4549019607843137,0.47058823529411764,0.6039215686274509,0.7058823529411765,0.43529411764705883,0.43529411764705883,0.47058823529411764,0.3568627450980392
299,494.87104904651636,1,0.53088330481787,0.3044328520166108,0.6522164226706261,0.5530936285362477,0.4760968708027572,0.19947483387729628,0.5997374130973278,0.4823529411764706,0.5450980392156862,0.5176470588235295,0.7450980392156863,0.5490196078431373,0.47058823529411764,0.5254901960784314,0.5450980392156862
300,494.87304496765137,1,0.602346799100442,0.3154334926174038,0.6642763976306882,0.5531872914523129,0.47569832996673606,0.2121354226787333,0.6136171851456907,0.47843137254901963,0.38823529411764707,0.4117647058823529,0.30980392156862746,0.47843137254901963,0.4666666666666667,0.48627450980392156,0.5294117647058824
301,494.90165102481836,1,0.5661668777248188,0.3639993301945129,0.6271186378450047,0.5529733106977125,0.4755235076326077,0.26802963117753953,0.5708524831159562,0.5019607843137255,0.5098039215686274,0.5019607843137255,0.4235294117647059,0.4745098039215686,0.4745098039215686,0.49019607843137253,0.5019607843137255
302,494.9318779706955,1,0.5745599678674936,0.4117503167541122,0.6106584049757856,0.552787325486412,0.47589809015310164,0.3229860312303192,0.5519084736263582,0.47058823529411764,0.43137254901960786,0.4823529411764706,0.3058823529411765,0.47058823529411764,0.4980392156862745,0.48627450980392156,0.4627450980392157
303,494.9331270456314,1,0.5897979091908908,0.4278031207768969,0.617666226526894,0.5528473826106881,0.4759796605924507,0.3414611326555836,0.5599737445748552,0.5254901960784314,0.5333333333333333,0.5019607843137255,0.47843137254901963,0.5058823529411764,0.4980392156862745,0.5215686274509804,0.5058823529411764
304,494.961727976799,1,0.5901238536031099,0.4104465357675563,0.6231258087822821,0.5528955585308716,0.47559236138067046,0.32148551543701837,0.5662571537390549,0.5137254901960784,0.5568627450980392,0.5019607843137255,0.47058823529411764,0.4980392156862745,0.49019607843137253,0.4980392156862745,0.4980392156862745
305,494.9910570383072,1,0.584093865288659,0.3856747036983523,0.6257333707553939,0.5527878671125928,0.475077307534001,0.2929757230469431,0.5692581853256566,0.5019607843137255,0.5058823529411764,0.49411764705882355,0.4666666666666667,0.5490196078431373,0.4980392156862745,0.5176470588235295,0.48627450980392156
306,494.993026971817,1,0.5770860437375507,0.38119295134194237,0.6332301122625104,0.5526256750400409,0.4746780387677582,0.2878176940054082,0.5778861520974666,0.4588235294117647,0.4,0.44313725490196076,0.48627450980392156,0.49411764705882355,0.5019607843137255,0.4980392156862745,0.5137254901960784
307,495.021546959877,1,0.5777379342308286,0.39382333069222764,0.6363265941916303,0.5525983709344184,0.4744918730143975,0.3023539419534228,0.5814498795073815,0.5019607843137255,0.5019607843137255,0.5058823529411764,0.5019607843137255,0.4549019607843137,0.5019607843137255,0.4745098039215686,0.5019607843137255
308,495.0240089893341,1,0.5751303722577168,0.39610494491544107,0.6373859135313426,0.5525901351434147,0.47430303178135663,0.304979841710709,0.5826690454683655,0.49019607843137253,0.4745098039215686,0.5176470588235295,0.4588235294117647,0.5490196078431373,0.5019607843137255,0.4980392156862745,0.5372549019607843
309,495.05211997032166,1,0.5745599678674936,0.3960234621500656,0.6377933457154561,0.5526234125023072,0.4742099450633559,0.3048860635550307,0.5831379573740196,0.5137254901960784,0.5372549019607843,0.5294117647058824,0.5058823529411764,0.4549019607843137,0.49411764705882355,0.49019607843137253,0.48627450980392156
310,495.0817819833756,1,0.5736636183975153,0.3964308926653395,0.6360006464417318,0.5526142586357204,0.47413865514987585,0.3053549735400245,0.5810747476780659,0.5411764705882353,0.5490196078431373,0.5176470588235295,0.4823529411764706,0.5058823529411764,0.5019607843137255,0.4588235294117647,0.47843137254901963
311,495.0843920707703,1,0.574396995661384,0.3929269802209457,0.6364080786258454,0.5526589331923313,0.47411603438212263,0.30132233614511583,0.58154365958372,0.5137254901960784,0.49411764705882355,0.5254901960784314,0.5058823529411764,0.49019607843137253,0.5058823529411764,0.5019607843137255,0.4823529411764706
312,495.1124150753021,1,0.5743155088907933,0.39480116392888515,0.6329856539533459,0.5526690166584622,0.47411663939009047,0.30347932591740817,0.5776048061064702,0.5098039215686274,0.5098039215686274,0.4745098039215686,0.4980392156862745,0.5215686274509804,0.5137254901960784,0.5098039215686274,0.5176470588235295
313,495.1415489912033,1,0.5756192898773493,0.39789764418916534,0.6301336303333904,0.5526712772755358,0.4741040782722816,0.3070430514066627,0.5743224246875518,0.5137254901960784,0.5215686274509804,0.5176470588235295,0.4980392156862745,0.45098039215686275,0.4588235294117647,0.5098039215686274,0.4980392156862745
314,495.1439250707626,1,0.5761082078307498,0.39806061472643534,0.629155797096733,0.5526600702231788,0.4740804418594065,0.30723061348000014,0.5731970407235665,0.5019607843137255,0.5254901960784314,0.5215686274509804,0.4980392156862745,0.5176470588235295,0.5019607843137255,0.49019607843137253,0.47843137254901963
315,495.1722639799118,1,0.5748859131141326,0.39691981262134757,0.632089303482064,0.5526016168501825,0.4740100427481344,0.30591766936333764,0.5765732002981634,0.48627450980392156,0.4823529411764706,0.48627450980392156,0.4980392156862745,0.5137254901960784,0.5098039215686274,0.5137254901960784,0.5019607843137255
316,495.2015390396118,1,0.5722783511410208,0.39325292129548545,0.6320078173790092,0.5525180527655298,0.4739519907931232,0.30169746029179056,0.5764794183011644,0.5058823529411764,0.5176470588235295,0.5176470588235295,0.5098039215686274,0.4980392156862745,0.49411764705882355,0.49411764705882355,0.4823529411764706
317,495.2040330171585,1,0.5693448439212698,0.3929269802209457,0.63168187296679,0.5524032395391721,0.4739041913223419,0.30132233614511583,0.5761042903131693,0.48627450980392156,0.49411764705882355,0.4980392156862745,0.49019607843137253,0.5058823529411764,0.49019607843137253,0.49411764705882355,0.5098039215686274
318,495.23227500915533,1,0.571219029298049,0.3978161580861106,0.6307040363924532,0.5522966813104204,0.4739632016868006,0.306949269409664,0.5749789025078637,0.5019607843137255,0.5058823529411764,0.49019607843137253,0.5019607843137255,0.4745098039215686,0.49411764705882355,0.49411764705882355,0.5098039215686274
319,495.26154005527496,1,0.5683670081813529,0.3971642642551533,0.6351042976392894,0.5521688114359182,0.47404485567486915,0.3061990076716931,0.5800431437904191,0.49019607843137253,0.4823529411764706,0.48627450980392156,0.4980392156862745,0.5058823529411764,0.49411764705882355,0.5019607843137255,0.49411764705882355
320,495.2645130157471,1,0.5660039051849413,0.39088982764457597,0.6370599691191233,0.5520253169905636,0.4742217552030205,0.2989777862201465,0.5822939174803704,0.5019607843137255,0.4980392156862745,0.49411764705882355,0.48627450980392156,0.5137254901960784,0.5019607843137255,0.5058823529411764,0.5019607843137255
321,495.2921060323715,1,0.5647001241983853,0.38852671730526983,0.6371414552221781,0.5518968536320549,0.4745615353604109,0.29625809294190025,0.5823876994773691,0.4980392156862745,0.5019607843137255,0.5098039215686274,0.5098039215686274,0.49019607843137253,0.5137254901960784,0.5137254901960784,0.49411764705882355
322,495.3216840028763,0,0.5656779599383023,0.38282267340303805,0.6372229413252329,0.5518516451319042,0.47508845773481556,0.2896933339453837,0.582481481474368,0.5019607843137255,0.49411764705882355,0.49411764705882355,0.5215686274509804,0.5019607843137255,0.4980392156862745,0.5019607843137255,0.5058823529411764
323,495.3816530704498,0,0.5686929534279919,0.38461537434560206,0.6380378056934601,0.5519539663842208,0.4757929464905985,0.29175654556199765,0.5834193052856761,0.5019607843137255,0.5019607843137255,0.5098039215686274,0.4980392156862745,0.48627450980392156,0.5019607843137255,0.49411764705882355,0.5058823529411764
324,495.38373804092413,0,0.5697522754378476,0.3856747036983523,0.6395860449891804,0.5520617384702287,0.4766010469902966,0.2929757230469431,0.5852011670699733,0.5058823529411764,0.49019607843137253,0.5019607843137255,0.49019607843137253,0.5137254901960784,0.5098039215686274,0.5019607843137255,0.4980392156862745
325,495.3856030702591,0,0.5690188986746308,0.3893415783358177,0.6373859135313426,0.5521331793476016,0.47760887694579685,0.29719591291188796,0.5826690454683655,0.49411764705882355,0.5058823529411764,0.4980392156862745,0.5058823529411764,0.5019607843137255,0.5019607843137255,0.5058823529411764,0.48627450980392156
326,495.4115390777588,0,0.5699967344145478,0.3933344107362196,0.6335560566747295,0.5521207296280853,0.4787696865271256,0.30179124613010977,0.5782612800854617,0.5058823529411764,0.48627450980392156,0.48627450980392156,0.48627450980392156,0.4627450980392157,0.5176470588235295,0.49019607843137253,0.49411764705882355
327,495.4132859706879,0,0.572196864871082,0.3952900822160535,0.6333115983655652,0.5520842044327685,0.47997752520242315,0.304042019820061,0.5779799340944654,0.49411764705882355,0.4823529411764706,0.5019607843137255,0.47843137254901963,0.4549019607843137,0.49411764705882355,0.49019607843137253,0.5098039215686274
328,495.44161701202387,0,0.5775749613571832,0.4034387175541272,0.6347783515582307,0.5521798475495161,0.4812665678551008,0.3134202483298419,0.5796680138817638,0.5215686274509804,0.5176470588235295,0.5098039215686274,0.5098039215686274,0.5176470588235295,0.5294117647058824,0.48627450980392156,0.5019607843137255
329,495.47127103805536,0,0.5815677910874416,0.40425357858467503,0.6272001272857388,0.5522154719551917,0.48249739414425274,0.3143580682998296,0.5709462689542755,0.5215686274509804,0.5215686274509804,0.49411764705882355,0.5333333333333333,0.5450980392156862,0.4980392156862745,0.49411764705882355,0.49411764705882355
330,495.47286701202387,0,0.5820567085401902,0.40482398130605857,0.6380378056934601,0.5521218359283693,0.48372830379005805,0.3150145422788211,0.5834193052856761,0.4745098039215686,0.42745098039215684,0.42745098039215684,0.47058823529411764,0.4745098039215686,0.47843137254901963,0.4549019607843137,0.5019607843137255
331,495.5014840364456,0,0.5820567085401902,0.40677965111705283,0.6452085994506781,0.5517102384442037,0.48491259171392614,0.31726531404811215,0.5916721402281706,0.48627450980392156,0.47058823529411764,0.47843137254901963,0.4549019607843137,0.48627450980392156,0.49411764705882355,0.48627450980392156,0.5019607843137255
332,495.5319969654083,0,0.5732561868809377,0.4251140743695699,0.6519719660303014,0.5509362488699315,0.486143551296897,0.3383663209926433,0.5994560690269916,0.4196078431372549,0.43529411764705883,0.4745098039215686,0.43137254901960786,0.4235294117647059,0.4588235294117647,0.5490196078431373,0.4745098039215686
333,495.5326910018921,0,0.5736636183975153,0.41998043485756137,0.6329041678502911,0.5496477989329964,0.4871632856964785,0.3324580378957785,0.5775110241094715,0.5215686274509804,0.5450980392156862,0.5372549019607843,0.5529411764705883,0.4980392156862745,0.5098039215686274,0.4235294117647059,0.4980392156862745
334,495.56141805648804,0,0.5810788728002733,0.4148467970143924,0.6078878691277245,0.5479228597555038,0.48798413649901673,0.3265497567195738,0.5487198761250988,0.5058823529411764,0.47843137254901963,0.5058823529411764,0.5137254901960784,0.5254901960784314,0.5137254901960784,0.5215686274509804,0.49019607843137253
335,495.5913369655609,0,0.5819752222702514,0.4142763959618486,0.6117992120873923,0.5459538949356607,0.48861710543829184,0.3258932846612426,0.5532214235050013,0.5294117647058824,0.5372549019607843,0.5058823529411764,0.4980392156862745,0.48627450980392156,0.5137254901960784,0.5098039215686274,0.49019607843137253
336,495.5935970544815,0,0.5826271120959935,0.4294328478445117,0.6117992120873923,0.5437371054075613,0.4888399974800938,0.34333677835753973,0.5532214235050013,0.49411764705882355,0.5019607843137255,0.4980392156862745,0.5137254901960784,0.5372549019607843,0.5176470588235295,0.49411764705882355,0.49411764705882355
337,495.6219869852066,0,0.5863754828495518,0.44654497287584827,0.6174217682177295,0.5410315673951026,0.4887458703404543,0.3630310476644483,0.5596923985838588,0.4980392156862745,0.5294117647058824,0.5294117647058824,0.5215686274509804,0.5137254901960784,0.48627450980392156,0.5098039215686274,0.4980392156862745
338,495.65161406993866,0,0.5848272435538314,0.4416557966795231,0.6179921709391132,0.5375729615600985,0.4882769814827228,0.3574041163205605,0.5603488725628503,0.5058823529411764,0.5176470588235295,0.5176470588235295,0.4980392156862745,0.5137254901960784,0.49019607843137253,0.5215686274509804,0.5176470588235295
339,495.65317499637604,0,0.5797750918137173,0.42682528587139984,0.6108213771818952,0.5335287656320135,0.4875031897364528,0.34033574677093803,0.5520960376203558,0.5215686274509804,0.5254901960784314,0.5372549019607843,0.5372549019607843,0.4980392156862745,0.5098039215686274,0.47843137254901963,0.4823529411764706
340,495.6820269823074,0,0.5826271120959935,0.4212842158441173,0.5977835673163359,0.5294706679652891,0.48621412326758845,0.33395855368907934,0.5370908796873473,0.5176470588235295,0.5019607843137255,0.48627450980392156,0.5019607843137255,0.49019607843137253,0.5058823529411764,0.5294117647058824,0.5058823529411764
341,495.7112410068512,0,0.5813233317769735,0.41900259995206424,0.5986799161187782,0.5255207995017039,0.4842796458225736,0.33133265201113293,0.538122483574994,0.4980392156862745,0.47843137254901963,0.47843137254901963,0.5058823529411764,0.49019607843137253,0.49019607843137253,0.5058823529411764,0.49019607843137253
342,495.77219903469086,0,0.5797750918137173,0.4243806961043975,0.6194589258006183,0.5214521900616205,0.4820761288248268,0.33752227917833383,0.5620369542708089,0.49019607843137253,0.5058823529411764,0.5019607843137255,0.49019607843137253,0.4980392156862745,0.48627450980392156,0.5058823529411764,0.5058823529411764
343,495.77432000637054,0,0.5655149872315408,0.41093545405472465,0.6351857837423442,0.5168928200535365,0.47977799856833986,0.32204820933967127,0.5801369257874178,0.49411764705882355,0.5098039215686274,0.4980392156862745,0.4980392156862745,0.5098039215686274,0.5019607843137255,0.48627450980392156,0.49019607843137253
344,495.83134496212006,0,0.5475065123964581,0.39056386988163955,0.6432529296396838,0.5119693900540148,0.47753869890251555,0.29860264286686966,0.5894213684588796,0.5019607843137255,0.5019607843137255,0.49019607843137253,0.49411764705882355,0.5058823529411764,0.5098039215686274,0.4980392156862745,0.49411764705882355
345,495.8315190076828,0,0.5462842176798409,0.3912157687191158,0.6135919113611167,0.5024851332256355,0.4724400712718593,0.2993529103668211,0.555284633200955,0.49411764705882355,0.49411764705882355,0.5019607843137255,0.5019607843137255,0.48627450980392156,0.48627450980392156,0.5098039215686274,0.49019607843137253
346,495.83376002311707,0,0.5409061211937397,0.4148467970143924,0.6189700075134499,0.49778436382835983,0.4694859813891867,0.3265497567195738,0.561474260368156,0.5058823529411764,0.4980392156862745,0.49019607843137253,0.4980392156862745,0.4980392156862745,0.5058823529411764,0.5058823529411764,0.5058823529411764
347,495.89140605926514,0,0.5079856514500865,0.4229954323524661,0.621496083383507,0.4877616549023027,0.463285239361319,0.3359279852293547,0.5643815099577589,0.4980392156862745,0.4823529411764706,0.49411764705882355,0.49019607843137253,0.47843137254901963,0.5137254901960784,0.49019607843137253,0.49411764705882355
348,495.9213540554047,0,0.4953552720998011,0.4102835635614467,0.6181551448140624,0.48295538709658214,0.46026064319453425,0.3212979514430208,0.560536438477508,0.5019607843137255,0.4980392156862745,0.49019607843137253,0.5176470588235295,0.5137254901960784,0.49019607843137253,0.5058823529411764,0.4980392156862745
349,495.9241089820862,0,0.4745762624179611,0.3631029964116275,0.6294002554058973,0.47402270085928416,0.45461012038122034,0.26699804457583465,0.5734783867145627,0.48627450980392156,0.5058823529411764,0.5019607843137255,0.5019607843137255,0.5098039215686274,0.5058823529411764,0.49019607843137253,0.4823529411764706
350,495.981978058815,0,0.4705834300175592,0.3617992154250716,0.6338005166527335,0.4701183203519111,0.4519946747774867,0.2654975287825338,0.5785426279971183,0.5019607843137255,0.5058823529411764,0.4980392156862745,0.49019607843137253,0.4823529411764706,0.4980392156862745,0.5215686274509804,0.5137254901960784
351,495.9840409755707,0,0.47718382439107293,0.383148614477578,0.6270371517419498,0.46680147268542677,0.4491120365278843,0.29006845809205845,0.5707587011189574,0.5019607843137255,0.5019607843137255,0.5019607843137255,0.5058823529411764,0.49019607843137253,0.5019607843137255,0.5019607843137255,0.49019607843137253
352,496.0110549926758,0,0.45933832109456396,0.4148467970143924,0.6215775694865617,0.46144429422747496,0.44316875900189434,0.3265497567195738,0.5644752919547577,0.5019607843137255,0.4980392156862745,0.49411764705882355,0.49019607843137253,0.4980392156862745,0.4980392156862745,0.49019607843137253,0.4980392156862745
353,496.1021200418472,0,0.43782593648523077,0.42063232201316,0.6437418462580126,0.45904133894601473,0.44101206501127527,0.33320829195110846,0.5899840604408721,0.49019607843137253,0.49411764705882355,0.4980392156862745,0.5215686274509804,0.49019607843137253,0.4980392156862745,0.5058823529411764,0.4980392156862745
354,496.13151502609253,0,0.42601042484085194,0.4034387175541272,0.6316003868637352,0.45700087947031265,0.4391705456000267,0.3134202483298419,0.5760105083161706,0.49411764705882355,0.4980392156862745,0.5019607843137255,0.47843137254901963,0.49411764705882355,0.5058823529411764,0.49411764705882355,0.49411764705882355
355,496.1339089870453,0,0.4269067753121339,0.41476531091133767,0.6346153793521211,0.4537549867541668,0.4336276296959422,0.32645597472257504,0.5794804498877663,0.5019607843137255,0.5019607843137255,0.4980392156862745,0.4980392156862745,0.5019607843137255,0.4980392156862745,0.49411764705882355,0.5019607843137255
356,496.1917560100555,0,0.4392112035748415,0.4348924300998997,0.6298891736930657,0.4530863934092161,0.4317631353471968,0.34962018752173946,0.5740410806172157,0.4980392156862745,0.4980392156862745,0.5098039215686274,0.5058823529411764,0.5019607843137255,0.49411764705882355,0.4980392156862745,0.5019607843137255
357,496.1945140361786,0,0.4408409306424562,0.44344849261556807,0.6256518846523391,0.45262846575933396,0.4309883218096921,0.35946732217519384,0.5691644033286578,0.49411764705882355,0.5019607843137255,0.4980392156862745,0.49411764705882355,0.5019607843137255,0.49411764705882355,0.4980392156862745,0.5215686274509804
358,496.25173699855804,0,0.43684810324857326,0.4310625699056074,0.6296447137150617,0.45176195029984384,0.43088424699459893,0.3452124182975152,0.5737597327055591,0.4980392156862745,0.4980392156862745,0.48627450980392156,0.5058823529411764,0.4980392156862745,0.4980392156862745,0.49411764705882355,0.48627450980392156
359,496.2542459964752,0,0.4361962110864556,0.4166394962881167,0.6254889124462295,0.45170144566173753,0.43111590934714267,0.32861296641552756,0.5689768393346603,0.5019607843137255,0.4980392156862745,0.5019607843137255,0.5058823529411764,0.5058823529411764,0.5137254901960784,0.5019607843137255,0.5019607843137255
360,496.34152007102966,0,0.4313885176555059,0.4325293297736316,0.6301336303333904,0.45222945628222033,0.43136280253519466,0.34690050576745457,0.5743224246875518,0.4980392156862745,0.5058823529411764,0.5058823529411764,0.48627450980392156,0.5019607843137255,0.5098039215686274,0.49411764705882355,0.4980392156862745
361,496.34368097782135,0,0.43358864911334377,0.4419002483133288,0.6230443226792273,0.4525580389905548,0.4313164224323126,0.357685454628916,0.5661633717420561,0.5019607843137255,0.5019607843137255,0.5058823529411764,0.5098039215686274,0.4980392156862745,0.49411764705882355,0.49411764705882355,0.4980392156862745
362,496.4014309644699,0,0.4168024684942263,0.4283735251671201,0.6312744407826765,0.4534024956674707,0.4329816732522904,0.3421176085552352,0.5756353784075153,0.49411764705882355,0.49411764705882355,0.4980392156862745,0.4980392156862745,0.5058823529411764,0.49019607843137253,0.5058823529411764,0.49411764705882355
363,496.403382062912,0,0.42063232201316,0.42918838786650765,0.6295632276120069,0.45412944635240693,0.43394315575613224,0.3430554304458832,0.5736659507085604,0.4980392156862745,0.4980392156862745,0.4980392156862745,0.5019607843137255,0.4980392156862745,0.49411764705882355,0.4980392156862745,0.5019607843137255
364,496.4919120073319,0,0.42519555880378507,0.4301662194343254,0.6271186378450047,0.45595906151164023,0.43619522589172893,0.34418081248920834,0.5708524831159562,0.5019607843137255,0.49019607843137253,0.49019607843137253,0.4980392156862745,0.5019607843137255,0.4980392156862745,0.49019607843137253,0.5098039215686274
365,496.49396800994873,0,0.4288624384477695,0.4330997308261754,0.6277705300071222,0.4570367804510594,0.43740151574662883,0.34755697782578576,0.5716027429332668,0.5058823529411764,0.4980392156862745,0.49411764705882355,0.4823529411764706,0.49411764705882355,0.4980392156862745,0.49019607843137253,0.5058823529411764
366,496.5511350631714,0,0.44092241674551097,0.4313885176555059,0.6327411923065023,0.46160814959177326,0.44292217888145746,0.34558755012683084,0.5773234562741535,0.4980392156862745,0.5019607843137255,0.5058823529411764,0.49411764705882355,0.4980392156862745,0.5058823529411764,0.5137254901960784,0.4980392156862745
367,496.61141300201416,0,0.44108538728278096,0.433914593525563,0.6351857837423442,0.4625234517413954,0.4444124056979842,0.3484947997164337,0.5801369257874178,0.49411764705882355,0.4980392156862745,0.49019607843137253,0.4823529411764706,0.5019607843137255,0.49411764705882355,0.5098039215686274,0.5137254901960784
368,496.61372101306915,0,0.4432040292998847,0.4352998606151737,0.6357561881325674,0.46328535075961147,0.44598311778083843,0.3500890975067334,0.5807934016870695,0.4980392156862745,0.5058823529411764,0.5098039215686274,0.49411764705882355,0.4980392156862745,0.4980392156862745,0.5019607843137255,0.5058823529411764
369,496.6154420375824,0,0.44556713963919087,0.43334419080417946,0.6336375427777843,0.46385858524552664,0.4477045459914573,0.34783832573744233,0.5783550620824605,0.4980392156862745,0.49019607843137253,0.4980392156862745,0.4980392156862745,0.5019607843137255,0.5019607843137255,0.49411764705882355,0.5098039215686274
370,496.67131304740906,0,0.45827900175485164,0.41166883398873677,0.6396675310922352,0.4651128339860057,0.4542809230616169,0.32289225307464087,0.5852949490669721,0.5058823529411764,0.5058823529411764,0.5058823529411764,0.5137254901960784,0.49019607843137253,0.5019607843137255,0.5019607843137255,0.49411764705882355
371,496.674085021019,0,0.46308669351696174,0.4083278920816128,0.6443937367512905,0.46553402516794734,0.45688232095653486,0.31904717775306957,0.5907343183375225,0.4980392156862745,0.49411764705882355,0.5019607843137255,0.5019607843137255,0.5098039215686274,0.48627450980392156,0.4745098039215686,0.5058823529411764
372,496.7613340616226,0,0.4669980364766295,0.3987939929916077,0.6507496694779606,0.4663555203519879,0.4626862776318183,0.3080746552943095,0.5980493333100293,0.49411764705882355,0.49019607843137253,0.49411764705882355,0.47058823529411764,0.48627450980392156,0.5019607843137255,0.49411764705882355,0.4745098039215686
373,496.76345205307007,0,0.4716427593703094,0.3982235936079035,0.6514830460742933,0.4668353684969086,0.4658975139550369,0.3074181851566385,0.5988933732036785,0.48627450980392156,0.4980392156862745,0.49411764705882355,0.5098039215686274,0.5058823529411764,0.49019607843137253,0.47843137254901963,0.4745098039215686
374,496.79193806648254,0,0.4919328457584621,0.39341590017695377,0.6506681850437455,0.4683126865561275,0.47691741141867067,0.301885031968429,0.5979555532336908,0.5019607843137255,0.4980392156862745,0.49411764705882355,0.4980392156862745,0.49019607843137253,0.49411764705882355,0.49411764705882355,0.49411764705882355
375,496.7939630746842,0,0.4929106856704782,0.39463819172277553,0.6483050797109583,0.4688294478697285,0.48096238137282266,0.3032917619234106,0.5952358657174251,0.49411764705882355,0.5058823529411764,0.49411764705882355,0.5019607843137255,0.5058823529411764,0.5019607843137255,0.49019607843137253,0.5058823529411764
376,496.82133507728577,0,0.4989406706472498,0.39488265003193995,0.6468383265182928,0.46940434372673,0.48544061577903036,0.30357310791440695,0.5935477859301268,0.5019607843137255,0.4980392156862745,0.5058823529411764,0.5019607843137255,0.47843137254901963,0.5098039215686274,0.5098039215686274,0.4980392156862745
377,496.8514649868012,0,0.5057855199922485,0.38632658584743196,0.6467568420840777,0.46998979169095506,0.49015289031512854,0.29372597134029244,0.5934540058537883,0.5019607843137255,0.48627450980392156,0.49019607843137253,0.49411764705882355,0.49411764705882355,0.5058823529411764,0.5137254901960784,0.49019607843137253
378,496.8537119626999,0,0.5138526658895882,0.3920306297496637,0.6432529296396838,0.47070456923144594,0.49499437421336956,0.3002907303368089,0.5894213684588796,0.4980392156862745,0.49411764705882355,0.5019607843137255,0.5098039215686274,0.4823529411764706,0.49411764705882355,0.49411764705882355,0.4980392156862745
379,496.9116389751434,0,0.5229791327954797,0.3939863095736959,0.6361636186478413,0.47159598412996884,0.4999061694102978,0.30254151363006127,0.5812623116720634,0.5019607843137255,0.5019607843137255,0.5019607843137255,0.5019607843137255,0.4823529411764706,0.49411764705882355,0.48627450980392156,0.5137254901960784
380,496.9141429662705,0,0.5325945179885395,0.39488265003193995,0.6294002554058973,0.4724981854562615,0.5048298631164672,0.30357310791440695,0.5734783867145627,0.5058823529411764,0.5019607843137255,0.5019607843137255,0.5137254901960784,0.5058823529411764,0.5019607843137255,0.49019607843137253,0.48627450980392156
381,496.9412970542908,0,0.546610162759596,0.40009777397816365,0.6272816117199539,0.4744439986378678,0.5145834616174302,0.30957517108761035,0.571040049030614,0.49019607843137253,0.49411764705882355,0.49411764705882355,0.5058823529411764,0.4980392156862745,0.4823529411764706,0.4745098039215686,0.5137254901960784
382,496.97180700302124,0,0.5533735268359598,0.3995273745944594,0.6303780919802341,0.4753585524982699,0.5192959032509671,0.30891870094993934,0.5746037745198685,0.49411764705882355,0.49411764705882355,0.5058823529411764,0.4980392156862745,0.4980392156862745,0.5019607843137255,0.4980392156862745,0.48627450980392156
