,time,gesture,ax,ay,az,qw,qx,qy,qz,e0,e1,e2,e3,e4,e5,e6,e7
0,13.37709105014801,0,0.40452775365735477,0.3926473499892734,0.5318460806429155,0.09355724893430037,0.21810930548503132,0.21060307195428393,0.3915244038426151,0.49411764705882355,0.4823529411764706,0.48627450980392156,0.49411764705882355,0.5137254901960784,0.4980392156862745,0.4980392156862745,0.49019607843137253
1,13.38104009628296,0,0.404791762765933,0.3938353903020125,0.5348821868784637,0.09354572377359201,0.21807713654782016,0.21214720841808984,0.39547053453871056,0.5098039215686274,0.5019607843137255,0.5058823529411764,0.5333333333333333,0.5490196078431373,0.5098039215686274,0.5058823529411764,0.5019607843137255
2,13.382407069206238,0,0.4041317402648326,0.3922513364615786,0.5344861717286978,0.09354572377359201,0.21807713654782016,0.21008835968255635,0.3949558201587218,0.5058823529411764,0.5019607843137255,0.49411764705882355,0.4745098039215686,0.49019607843137253,0.5176470588235295,0.5019607843137255,0.4980392156862745
3,13.383465051651001,0,0.40432974716385256,0.3928453564827756,0.5331661261858067,0.09354572377359201,0.21807713654782016,0.21086042773877084,0.3932401120006685,0.4980392156862745,0.5098039215686274,0.4588235294117647,0.45098039215686275,0.5137254901960784,0.4666666666666667,0.49411764705882355,0.49411764705882355
4,13.394687056541445,0,0.4037357268723104,0.3927133523340043,0.5324401047192903,0.09354572377359201,0.21807713654782016,0.21068885745003083,0.3922964771694824,0.49411764705882355,0.49019607843137253,0.49411764705882355,0.48627450980392156,0.41568627450980394,0.49019607843137253,0.49019607843137253,0.5058823529411764
5,13.424729108810425,0,0.40386773129142695,0.39363738353816513,0.5327701150912185,0.09356643041141345,0.2180664124736252,0.21188985228222604,0.39272540289133256,0.5019607843137255,0.5019607843137255,0.5254901960784314,0.5372549019607843,0.5372549019607843,0.5098039215686274,0.5058823529411764,0.5019607843137255
6,13.427149057388306,0,0.40327371127023,0.3935053791190486,0.5339581470232568,0.09356620904399741,0.21806641203440416,0.21171828164210912,0.3942695284624561,0.4980392156862745,0.48627450980392156,0.48627450980392156,0.4745098039215686,0.4980392156862745,0.5058823529411764,0.49411764705882355,0.5019607843137255
7,13.454829096794127,0,0.40439574923823823,0.3929773611722373,0.5330341206853094,0.09356620904399741,0.21806641203440416,0.21103199873026462,0.3930685399550442,0.4980392156862745,0.4980392156862745,0.4980392156862745,0.48627450980392156,0.48627450980392156,0.49411764705882355,0.49411764705882355,0.49019607843137253
8,13.484204053878784,0,0.404791762765933,0.3929773611722373,0.5328361144621524,0.09356643041141345,0.2180664124736252,0.21103199873026462,0.3928111845219341,0.5019607843137255,0.49019607843137253,0.5058823529411764,0.49019607843137253,0.5176470588235295,0.5137254901960784,0.5098039215686274,0.4980392156862745
9,13.486513018608091,0,0.40531978071274427,0.3933073723552012,0.5316480744197585,0.09357693482237005,0.21802352160561797,0.21146092550624535,0.391267048409505,0.49411764705882355,0.4823529411764706,0.5019607843137255,0.4980392156862745,0.5137254901960784,0.5137254901960784,0.4980392156862745,0.5019607843137255
10,13.514352083206177,0,0.4049897692594352,0.39357138132860686,0.5313840688256677,0.09357693482237005,0.21802352160561797,0.21180406696216758,0.3909239113457934,0.49411764705882355,0.5098039215686274,0.48627450980392156,0.49019607843137253,0.396078431372549,0.49019607843137253,0.49019607843137253,0.49019607843137253
11,13.543875098228455,0,0.404791762765933,0.3930433633817956,0.5307900447492929,0.09357605462335863,0.21803424216604436,0.21111778405032308,0.3901518380189261,0.5098039215686274,0.5058823529411764,0.5058823529411764,0.5215686274509804,0.5725490196078431,0.49411764705882355,0.5098039215686274,0.4980392156862745
12,13.546233057975767,0,0.40386773129142695,0.3925153454349843,0.5317140791975961,0.09357452613405738,0.21806640706242172,0.21043150113847858,0.39135283706764357,0.5019607843137255,0.49411764705882355,0.5098039215686274,0.5098039215686274,0.5294117647058824,0.5450980392156862,0.49411764705882355,0.5058823529411764
13,13.574679017066956,0,0.40432974716385256,0.3922513364615786,0.5337601462070036,0.09357814882938979,0.21810930455388267,0.21008835968255635,0.394012180056883,0.4980392156862745,0.5019607843137255,0.5098039215686274,0.4980392156862745,0.5294117647058824,0.5098039215686274,0.5058823529411764,0.4980392156862745
14,13.604730010032654,0,0.40307570437121004,0.39343937677431773,0.5354101980666454,0.09356560291892967,0.21815219205745662,0.21163249614636223,0.3961568086661338,0.5058823529411764,0.5098039215686274,0.49019607843137253,0.49411764705882355,0.43529411764705883,0.48627450980392156,0.4980392156862745,0.5019607843137255
15,13.607081055641176,0,0.4019536662680292,0.39185532293388387,0.5348161821006262,0.0935438087697548,0.2182165277269892,0.20957364741082873,0.395384745880572,0.47843137254901963,0.4666666666666667,0.47058823529411764,0.4588235294117647,0.5647058823529412,0.4823529411764706,0.48627450980392156,0.48627450980392156
16,13.63468611240387,0,0.4016896572946235,0.39053527820202827,0.5314500681966015,0.09348923291727855,0.2182701407612151,0.2078579403069059,0.39100969297639493,0.5137254901960784,0.5254901960784314,0.5529411764705883,0.6,0.4980392156862745,0.5176470588235295,0.5098039215686274,0.5098039215686274
17,13.663868069648744,0,0.39799353163991,0.3928453564827756,0.5321100902921841,0.0934369726382495,0.21824869603172203,0.21086042773877084,0.39186754617697944,0.5019607843137255,0.5176470588235295,0.47058823529411764,0.49019607843137253,0.5058823529411764,0.5098039215686274,0.49411764705882355,0.4980392156862745
18,13.666192054748535,0,0.3993135765069382,0.397135502469583,0.5364002291824304,0.09339670485114045,0.21825942003564158,0.21643647661711798,0.39744358583168427,0.49411764705882355,0.5019607843137255,0.5058823529411764,0.4745098039215686,0.5176470588235295,0.5019607843137255,0.4980392156862745,0.5098039215686274
19,13.694287061691284,0,0.4000396011770451,0.3949574284051933,0.5395683503805575,0.09338621625214213,0.21832375462469036,0.2136055595618373,0.4015613008715938,0.5019607843137255,0.4980392156862745,0.4980392156862745,0.5019607843137255,0.5098039215686274,0.49411764705882355,0.5019607843137255,0.49411764705882355
20,13.724122047424315,0,0.40485776511066385,0.39040327364773914,0.5392383264913697,0.09332012226649455,0.21827014181534565,0.2076863694911006,0.40113235758090116,0.49411764705882355,0.4980392156862745,0.49019607843137253,0.49411764705882355,0.5333333333333333,0.48627450980392156,0.49411764705882355,0.5019607843137255
21,13.726495027542114,0,0.40558378955097735,0.38881921980730527,0.5375222698538905,0.09325297415029436,0.21804496172504673,0.20562752075556706,0.3989019403135118,0.4980392156862745,0.4980392156862745,0.4980392156862745,0.4980392156862745,0.38823529411764707,0.49019607843137253,0.5019607843137255,0.49411764705882355
22,13.784210085868835,0,0.4056497918957082,0.3879611908127027,0.5348161821006262,0.09314780705883063,0.2176911196317655,0.2045123112434303,0.395384745880572,0.49411764705882355,0.5058823529411764,0.5098039215686274,0.5058823529411764,0.5372549019607843,0.49019607843137253,0.4980392156862745,0.5019607843137255
23,13.78640604019165,0,0.404791762765933,0.3911292984935704,0.5345521765065354,0.0929950284040748,0.21732652913144246,0.20863000871449733,0.39504160881686046,0.49411764705882355,0.48627450980392156,0.4980392156862745,0.4980392156862745,0.5254901960784314,0.4549019607843137,0.49019607843137253,0.49411764705882355
24,13.814917087554932,0,0.4005016168467118,0.39238334088069515,0.5323080951636152,0.09259787944773257,0.21723001994801522,0.21025993032267323,0.39212489985320537,0.4980392156862745,0.4980392156862745,0.49019607843137253,0.48627450980392156,0.5411764705882353,0.49411764705882355,0.49411764705882355,0.4980392156862745
25,13.874751091003418,0,0.39852154957996266,0.38941323996367483,0.529205992260585,0.09236808425792004,0.21742307561352245,0.20639958898747002,0.38809299104027684,0.4980392156862745,0.49411764705882355,0.4823529411764706,0.4823529411764706,0.4980392156862745,0.5333333333333333,0.49411764705882355,0.49411764705882355
26,13.878711104393005,0,0.3958154576701411,0.38888522201686354,0.5301960233763701,0.09212576599714267,0.21764821101922724,0.20571330607562552,0.3893797682058273,0.5019607843137255,0.49411764705882355,0.5137254901960784,0.5176470588235295,0.5215686274509804,0.5215686274509804,0.5098039215686274,0.4980392156862745
27,13.904141068458555,0,0.39139330733180344,0.3926473499892734,0.5335621399838466,0.09154614352837806,0.21810929533024032,0.21060307195428393,0.3937548246237729,0.5098039215686274,0.5058823529411764,0.49411764705882355,0.5058823529411764,0.48627450980392156,0.49411764705882355,0.4980392156862745,0.49411764705882355
28,13.964104056358336,0,0.392449343225426,0.39343937677431773,0.5331001254631469,0.09121362682998382,0.2184095384162595,0.21163249614636223,0.3931543286131827,0.49411764705882355,0.5019607843137255,0.5254901960784314,0.5215686274509804,0.5019607843137255,0.5137254901960784,0.5137254901960784,0.4980392156862745
29,13.96650207042694,0,0.3914593095413617,0.391789320589153,0.5334301358350753,0.09084635896103911,0.21874192424434566,0.20948786191508184,0.39358325433503283,0.4980392156862745,0.49411764705882355,0.4823529411764706,0.49411764705882355,0.49411764705882355,0.5568627450980392,0.4980392156862745,0.4980392156862745
30,13.995115041732788,0,0.39429740617443815,0.3935053791190486,0.5329021165365381,0.08947136863707912,0.21947106302706312,0.21171828164210912,0.3928969696663041,0.4980392156862745,0.5019607843137255,0.5019607843137255,0.49411764705882355,0.49411764705882355,0.47058823529411764,0.49411764705882355,0.5019607843137255
31,14.054249048233032,0,0.3965414822456272,0.39508943295948246,0.534222166134607,0.08892205242170156,0.21963192563333833,0.21377713037764265,0.3946126830950102,0.5058823529411764,0.5058823529411764,0.4823529411764706,0.48627450980392156,0.47843137254901963,0.5058823529411764,0.49411764705882355,0.4980392156862745
32,14.056740045547485,0,0.3950234306147516,0.3955514485615629,0.534222166134607,0.08831554962384582,0.21983560254260506,0.21437762779374026,0.3946126830950102,0.5019607843137255,0.5019607843137255,0.5137254901960784,0.5176470588235295,0.5058823529411764,0.5019607843137255,0.5019607843137255,0.5019607843137255
33,14.084786057472227,0,0.3963434756169524,0.3912613026423417,0.5315160702709871,0.08693907121892244,0.2204039495039139,0.20880157900323734,0.39109547812076495,0.4980392156862745,0.5058823529411764,0.5294117647058824,0.5176470588235295,0.5490196078431373,0.48627450980392156,0.5019607843137255,0.49411764705882355
34,14.087237000465393,0,0.39858755182331407,0.3907332846955304,0.5321100902921841,0.08618884123398914,0.2206076739368997,0.20811529609139284,0.39186754617697944,0.4980392156862745,0.49019607843137253,0.47843137254901963,0.4980392156862745,0.48627450980392156,0.5215686274509804,0.5176470588235295,0.5019607843137255
35,14.144942045211792,0,0.4006996236105592,0.3922513364615786,0.5329681159074718,0.08539802370901248,0.2206826850764243,0.21008835968255635,0.39298275129690563,0.5058823529411764,0.49411764705882355,0.4980392156862745,0.5098039215686274,0.4823529411764706,0.5098039215686274,0.5372549019607843,0.5019607843137255
36,14.14745807647705,0,0.4012276415573705,0.3963434756169524,0.5374562785933124,0.08463098209864955,0.2206184492594083,0.21540705233719545,0.3988161692242158,0.4980392156862745,0.5176470588235295,0.5176470588235295,0.5137254901960784,0.5568627450980392,0.4745098039215686,0.4823529411764706,0.49411764705882355
37,14.173755049705505,0,0.4179922117065604,0.3978615271396899,0.533298130334578,0.08318194086025417,0.21997509476018762,0.21738011561211976,0.3934116822894086,0.49411764705882355,0.48627450980392156,0.4980392156862745,0.4588235294117647,0.4823529411764706,0.4666666666666667,0.49411764705882355,0.5019607843137255
38,14.204088091850279,0,0.43383275146262495,0.3999075966903423,0.5319780847916868,0.08257508844243182,0.21895639060147037,0.22003946190430163,0.3916959741313552,0.5019607843137255,0.5176470588235295,0.5058823529411764,0.5098039215686274,0.5176470588235295,0.5019607843137255,0.5137254901960784,0.5137254901960784
39,14.205613017082214,0,0.4404989771962887,0.4061778098425195,0.5290739867600877,0.08213631714122044,0.21745522599803588,0.2281890715263772,0.38792141899465254,0.5058823529411764,0.4745098039215686,0.5137254901960784,0.49019607843137253,0.5686274509803921,0.5058823529411764,0.5098039215686274,0.5137254901960784
40,14.234760046005249,0,0.4358788184720325,0.42135832561058506,0.5313840688256677,0.08190891307087803,0.21570740329590785,0.24791970497837404,0.3909239113457934,0.5019607843137255,0.4980392156862745,0.49411764705882355,0.5098039215686274,0.4117647058823529,0.5098039215686274,0.5098039215686274,0.5019607843137255
41,14.2637220621109,0,0.43119266037684256,0.4294766010359114,0.5337601462070036,0.08197151085685951,0.21428122562213295,0.25847130408915164,0.394012180056883,0.4980392156862745,0.5058823529411764,0.49411764705882355,0.5098039215686274,0.5372549019607843,0.4823529411764706,0.5019607843137255,0.49019607843137253
42,14.294321060180664,0,0.4343607680577103,0.42254636700470494,0.5285459715167283,0.08228458763097968,0.2134127480153972,0.24946384284768733,0.3872351395965765,0.4980392156862745,0.47843137254901963,0.48627450980392156,0.4980392156862745,0.49019607843137253,0.5529411764705883,0.4745098039215686,0.48627450980392156
43,14.29601001739502,0,0.44043297241845114,0.4052537783680134,0.5304600343773646,0.08282614720237443,0.21283394109230344,0.2269880763428051,0.38972291229707595,0.4980392156862745,0.49411764705882355,0.5058823529411764,0.5137254901960784,0.5058823529411764,0.4745098039215686,0.4549019607843137,0.6274509803921569
44,14.323958039283752,0,0.437528875738578,0.3968054912190328,0.5354762028444828,0.08349635813706038,0.21205096752845706,0.21600754975329306,0.39624259732427236,0.47843137254901963,0.4666666666666667,0.49019607843137253,0.5019607843137255,0.5176470588235295,0.4980392156862745,0.5137254901960784,0.5098039215686274
45,14.326715111732485,0,0.41852022965337166,0.4056497918957082,0.551382746026659,0.08428731269900887,0.21080699140142195,0.22750278861453269,0.416916873337746,0.5098039215686274,0.47843137254901963,0.5176470588235295,0.5137254901960784,0.5098039215686274,0.5137254901960784,0.596078431372549,0.4588235294117647
46,14.353933095932007,0,0.3968054912190328,0.4160781461424722,0.5474226080462595,0.0851385406890704,0.20977785498698448,0.241056875859929,0.41176974710670156,0.5098039215686274,0.49019607843137253,0.47058823529411764,0.48627450980392156,0.4823529411764706,0.4235294117647059,0.49411764705882355,0.49411764705882355
47,14.385142087936401,0,0.38697115699346574,0.41310804536062445,0.5319780847916868,0.08593873119154387,0.20928434303755378,0.23719653470041419,0.3916959741313552,0.49411764705882355,0.5254901960784314,0.5098039215686274,0.48627450980392156,0.47058823529411764,0.5607843137254902,0.45098039215686275,0.49411764705882355
48,14.387243032455444,0,0.38578311695107187,0.40215167303187654,0.5191076478450589,0.08683163247611789,0.20908081168614756,0.22295616436748497,0.374967828813977,0.5176470588235295,0.5450980392156862,0.5098039215686274,0.5058823529411764,0.5058823529411764,0.5294117647058824,0.5137254901960784,0.5019607843137255
49,14.41440200805664,0,0.38914923085509656,0.3909972938041087,0.5198336733667531,0.08774750853608569,0.20911329331361828,0.20845843772300354,0.3759114689158159,0.5098039215686274,0.5294117647058824,0.5019607843137255,0.4980392156862745,0.47843137254901963,0.5803921568627451,0.5372549019607843,0.5058823529411764
50,14.444651007652284,0,0.39561745090629374,0.39865355406666547,0.5216817355047296,0.08858045263171249,0.20893076797311042,0.21840953998867094,0.3783134582288295,0.47843137254901963,0.48627450980392156,0.47843137254901963,0.49411764705882355,0.5333333333333333,0.43137254901960786,0.3843137254901961,0.4392156862745098
51,14.44656503200531,0,0.404791762765933,0.40611180749778863,0.5245858335363288,0.08935131370844429,0.2087483986439243,0.22810328603063032,0.38208801336553216,0.49019607843137253,0.48627450980392156,0.49411764705882355,0.47843137254901963,0.5176470588235295,0.4549019607843137,0.47843137254901963,0.4470588235294118
52,14.473887085914614,0,0.4049897692594352,0.40366972452757954,0.5295360026325133,0.0899233903593366,0.20898457149926847,0.2249292276072716,0.388521916762127,0.5058823529411764,0.5058823529411764,0.5137254901960784,0.5137254901960784,0.6549019607843137,0.4745098039215686,0.5411764705882353,0.5215686274509804
53,14.504113078117369,0,0.40485776511066385,0.3958154576701411,0.5309880536759017,0.0903587181674095,0.20926304924901457,0.21472076942535095,0.3904091969658047,0.5019607843137255,0.5019607843137255,0.49411764705882355,0.5098039215686274,0.5058823529411764,0.5490196078431373,0.4549019607843137,0.47843137254901963
54,14.506216049194336,0,0.4046597582116439,0.3973335091658441,0.5334301358350753,0.09068029826132058,0.20924159646245033,0.21669383266513756,0.39358325433503283,0.47843137254901963,0.4823529411764706,0.5058823529411764,0.4823529411764706,0.45098039215686275,0.47843137254901963,0.5019607843137255,0.5058823529411764
55,14.564068078994751,0,0.3954854463520046,0.4097419307807368,0.5380502945593314,0.09094432282706007,0.20880166227955102,0.23282148091779492,0.3995882320097776,0.5098039215686274,0.5098039215686274,0.4980392156862745,0.49411764705882355,0.44313725490196076,0.49019607843137253,0.5215686274509804,0.5137254901960784
56,14.56623899936676,0,0.3914593095413617,0.4140320764296127,0.5428684540998409,0.09109709621116316,0.20841583837480057,0.23839752935692102,0.4058505580900954,0.5019607843137255,0.49019607843137253,0.5019607843137255,0.5137254901960784,0.49019607843137253,0.5490196078431373,0.5215686274509804,0.5137254901960784
57,14.594290018081665,0,0.4009636325839649,0.4047257604212021,0.5382482953755847,0.09102338261850457,0.2081907655141752,0.2263017934309606,0.3998455804153507,0.5215686274509804,0.5254901960784314,0.4980392156862745,0.5019607843137255,0.49019607843137253,0.4823529411764706,0.5137254901960784,0.5176470588235295
58,14.59535300731659,0,0.404791762765933,0.40743185277033467,0.5351461924725546,0.09095275587148081,0.20744055134120018,0.22981899383730683,0.3958136716024222,0.49019607843137253,0.45098039215686275,0.47843137254901963,0.49411764705882355,0.615686274509804,0.49019607843137253,0.49411764705882355,0.49411764705882355
59,14.62406301498413,0,0.4081578769403029,0.4104019534170098,0.5344201669508603,0.09092847573108612,0.2065825024237097,0.23367933482113323,0.39487003150058336,0.49019607843137253,0.5019607843137255,0.5254901960784314,0.5058823529411764,0.4823529411764706,0.4823529411764706,0.5019607843137255,0.5019607843137255
60,14.626383066177368,0,0.4092139128339255,0.4103359508019337,0.5333641310572378,0.0908406930093189,0.2058638910847014,0.2335935489740095,0.39349746567689436,0.49019607843137253,0.49019607843137253,0.5098039215686274,0.5137254901960784,0.5294117647058824,0.5098039215686274,0.5019607843137255,0.5019607843137255
61,14.654245018959045,0,0.4159461419937009,0.40888390178613415,0.5296020074103509,0.09075498341097182,0.20528486947035177,0.23170627140565817,0.38860770542026557,0.5215686274509804,0.5058823529411764,0.5137254901960784,0.5098039215686274,0.41568627450980394,0.5137254901960784,0.5215686274509804,0.5058823529411764
62,14.684527039527893,0,0.4151541149383114,0.4097419307807368,0.5279519487920795,0.09072265674069228,0.2047916048902241,0.23282148091779492,0.38646306802659347,0.5019607843137255,0.5098039215686274,0.5019607843137255,0.49019607843137253,0.5176470588235295,0.48627450980392156,0.49019607843137253,0.4980392156862745
63,14.686751008033752,0,0.41614414821685786,0.41324005018525883,0.529205992260585,0.0907785959353499,0.20428788860566746,0.23736810586759638,0.38809299104027684,0.5058823529411764,0.5215686274509804,0.5058823529411764,0.49411764705882355,0.40784313725490196,0.49019607843137253,0.48627450980392156,0.5019607843137255
64,14.714179039001465,0,0.41621015164296954,0.41264602962337144,0.534090156578932,0.09087410894783611,0.20403043654392336,0.23659603710862814,0.3944411057787332,0.49019607843137253,0.48627450980392156,0.4980392156862745,0.5019607843137255,0.5647058823529412,0.5098039215686274,0.49411764705882355,0.49411764705882355
65,14.745572090148926,0,0.41621015164296954,0.40842188604888113,0.5422744381338217,0.09095696185238568,0.20383709494550376,0.23110577381387212,0.4050784953045336,0.5019607843137255,0.49019607843137253,0.48627450980392156,0.5019607843137255,0.4980392156862745,0.48627450980392156,0.4980392156862745,0.4980392156862745
66,14.747216105461119,0,0.41693617581293785,0.4093459175233872,0.5408883918682709,0.0910242083541041,0.2034835782096176,0.2323067689974442,0.40327700375899445,0.49019607843137253,0.49411764705882355,0.4980392156862745,0.49019607843137253,0.5372549019607843,0.5058823529411764,0.4980392156862745,0.49019607843137253
67,14.773876070976256,0,0.4193122558977256,0.40789386810206985,0.5360042275499239,0.09105557576558077,0.20305457518486025,0.23041949090202762,0.39692888902053813,0.4980392156862745,0.5019607843137255,0.5058823529411764,0.5058823529411764,0.5058823529411764,0.4627450980392157,0.48627450980392156,0.49411764705882355
68,14.804704070091248,0,0.4230743835997903,0.406309814261636,0.5334301358350753,0.09107716787306638,0.20245412133949214,0.2283606421664941,0.39358325433503283,0.5098039215686274,0.5098039215686274,0.48627450980392156,0.4980392156862745,0.5098039215686274,0.5058823529411764,0.5058823529411764,0.5019607843137255
69,14.806982040405273,0,0.42221635528105067,0.40908190868515415,0.5340241518010944,0.09115391911860068,0.20165013684547145,0.2319636277172104,0.39435531712059463,0.4980392156862745,0.4980392156862745,0.5058823529411764,0.5019607843137255,0.5215686274509804,0.5019607843137255,0.5019607843137255,0.5019607843137255
70,14.83473002910614,0,0.4187182358765286,0.41693617581293785,0.5324401047192903,0.09125885781511134,0.20078129169854975,0.2421720862505079,0.3922964771694824,0.5019607843137255,0.4980392156862745,0.49411764705882355,0.48627450980392156,0.5019607843137255,0.5098039215686274,0.5098039215686274,0.5098039215686274
71,14.894107103347778,0,0.4173981916853634,0.4206323014406168,0.5307240426749072,0.09137384588955672,0.200116056260072,0.24697606663341942,0.3900660528745561,0.49411764705882355,0.48627450980392156,0.4549019607843137,0.45098039215686275,0.5058823529411764,0.49411764705882355,0.4980392156862745,0.49411764705882355
72,14.896381020545961,0,0.41733218961097773,0.418454227578986,0.5307240426749072,0.09149884820425172,0.19969889287830453,0.24414514984167138,0.3900660528745561,0.4980392156862745,0.49411764705882355,0.5176470588235295,0.5254901960784314,0.5058823529411764,0.6078431372549019,0.47843137254901963,0.49019607843137253
73,14.924092054367065,0,0.41792620828044874,0.41621015164296954,0.5290739867600877,0.09185978250545962,0.1990764384498617,0.2412284479055533,0.38792141899465254,0.4980392156862745,0.5058823529411764,0.5098039215686274,0.5058823529411764,0.5098039215686274,0.5019607843137255,0.5058823529411764,0.5098039215686274
74,14.926603078842163,0,0.4183882255046003,0.4173981916853634,0.5298660130044417,0.09206202447951163,0.1987652494478728,0.24277258401798238,0.3889508424839772,0.5058823529411764,0.4980392156862745,0.4980392156862745,0.49411764705882355,0.49411764705882355,0.4666666666666667,0.49019607843137253,0.5019607843137255
75,14.954289078712465,0,0.418454227578986,0.41891624209968564,0.5302620281542075,0.09228073900033217,0.19845495733529575,0.2447456458522616,0.38946555686396583,0.5098039215686274,0.49411764705882355,0.49411764705882355,0.5019607843137255,0.4980392156862745,0.49411764705882355,0.5294117647058824,0.5019607843137255
76,14.984320998191832,0,0.41753019583413475,0.4209623118125452,0.5301300226537102,0.0925238847535933,0.19811127985398747,0.24740499235526955,0.38929398481834154,0.4980392156862745,0.5058823529411764,0.4980392156862745,0.4980392156862745,0.4588235294117647,0.48627450980392156,0.5019607843137255,0.5019607843137255
77,14.986340999603273,0,0.418652233802143,0.4204342952174598,0.5301960233763701,0.09280137935091069,0.1978108282258073,0.24671871120030933,0.3893797682058273,0.5098039215686274,0.5058823529411764,0.5058823529411764,0.5058823529411764,0.5137254901960784,0.5019607843137255,0.49411764705882355,0.5058823529411764
78,15.014178037643433,0,0.4203022897169625,0.41786020620606307,0.5316480744197585,0.09312468646204376,0.1975430254804789,0.24337308002857258,0.391267048409505,0.5058823529411764,0.49411764705882355,0.49411764705882355,0.49411764705882355,0.47843137254901963,0.4588235294117647,0.4980392156862745,0.49411764705882355
79,15.074257016181946,0,0.4206323014406168,0.41786020620606307,0.5333641310572378,0.09346093653947843,0.19720054724836264,0.24337308002857258,0.39349746567689436,0.4980392156862745,0.5019607843137255,0.49411764705882355,0.49411764705882355,0.4117647058823529,0.5019607843137255,0.4980392156862745,0.5019607843137255
80,15.07678210735321,0,0.42201834770616775,0.418256220004103,0.5300640205793247,0.09380077066079194,0.19677108110891584,0.24388779265167704,0.38920819967397147,0.5019607843137255,0.49019607843137253,0.5058823529411764,0.5058823529411764,0.5176470588235295,0.4823529411764706,0.49411764705882355,0.5058823529411764
81,15.10416305065155,0,0.42650650092992665,0.4226123690790906,0.5264338997294832,0.09443428555405786,0.1958276405891283,0.24954962799205735,0.3844900079491985,0.48627450980392156,0.4980392156862745,0.5019607843137255,0.4980392156862745,0.4549019607843137,0.5058823529411764,0.5098039215686274,0.4980392156862745
82,15.106141090393065,0,0.42551646711068974,0.42380040912148453,0.5282159611448,0.09477807266494359,0.19540957943950685,0.2510937641044864,0.3868062138747264,0.49411764705882355,0.4980392156862745,0.49019607843137253,0.49411764705882355,0.5411764705882353,0.4823529411764706,0.49019607843137253,0.4823529411764706
83,15.134019017219545,0,0.42498844916387846,0.42327239117467325,0.5304600343773646,0.09516687115042505,0.1950455389669373,0.25040748119264195,0.38972291229707595,0.49019607843137253,0.49019607843137253,0.49411764705882355,0.47843137254901963,0.4980392156862745,0.43529411764705883,0.49019607843137253,0.49411764705882355
84,15.164178013801575,0,0.42551646711068974,0.4192462538233399,0.5301300226537102,0.09559206349323476,0.19465881887552874,0.24517457333099602,0.38929398481834154,0.47843137254901963,0.4980392156862745,0.4980392156862745,0.5019607843137255,0.4117647058823529,0.5725490196078431,0.47058823529411764,0.48627450980392156
85,15.166208028793335,0,0.425846478834344,0.4197742717701512,0.5300640205793247,0.09598978343695966,0.19414432410607182,0.24586085624284051,0.38920819967397147,0.5137254901960784,0.5019607843137255,0.4980392156862745,0.5058823529411764,0.5215686274509804,0.5058823529411764,0.5098039215686274,0.5058823529411764
86,15.19455599784851,0,0.42578047675995834,0.4224803635785933,0.5292719970384225,0.09636670011422913,0.19350130095522153,0.24937805594643306,0.3881787796984154,0.49019607843137253,0.49411764705882355,0.4823529411764706,0.4980392156862745,0.5294117647058824,0.5176470588235295,0.5058823529411764,0.49411764705882355
87,15.225098013877867,0,0.42545046503630407,0.42650650092992665,0.5278859467176938,0.09674492918403656,0.19273836869712943,0.25461096380807896,0.38637728288222345,0.4980392156862745,0.5058823529411764,0.5058823529411764,0.5098039215686274,0.5254901960784314,0.5058823529411764,0.5058823529411764,0.5019607843137255
88,15.228317022323608,0,0.42512045331264975,0.43046663485514836,0.52550986528118,0.09707324868594722,0.19197846882126035,0.2597580847684706,0.38328900890048107,0.5019607843137255,0.49411764705882355,0.5019607843137255,0.5019607843137255,0.5058823529411764,0.3215686274509804,0.4666666666666667,0.49019607843137253
89,15.253727078437805,0,0.4250544512382641,0.4316546748975422,0.5264338997294832,0.09738378500543562,0.19131357773209645,0.26130222088089966,0.3844900079491985,0.49411764705882355,0.49411764705882355,0.49411764705882355,0.4980392156862745,0.5019607843137255,0.4745098039215686,0.4980392156862745,0.49411764705882355
90,15.283644080162047,0,0.42531845953580677,0.4325787066423935,0.524189818386563,0.09767505884595967,0.19060629126899153,0.2625032164158486,0.38157329898554343,0.4980392156862745,0.49019607843137253,0.49411764705882355,0.5019607843137255,0.5764705882352941,0.49411764705882355,0.5019607843137255,0.49019607843137253
91,15.285572052001953,0,0.42578047675995834,0.4327767155690024,0.5229357816766871,0.09798622061624261,0.18986649717652893,0.26276057536272723,0.37994338475628137,0.5058823529411764,0.5058823529411764,0.5019607843137255,0.48627450980392156,0.4823529411764706,0.5372549019607843,0.5098039215686274,0.5137254901960784
92,15.31381607055664,0,0.42545046503630407,0.4338987521852847,0.5216817355047296,0.09830173243193929,0.18909298320457307,0.264218924573902,0.3783134582288295,0.49019607843137253,0.4627450980392157,0.4980392156862745,0.5019607843137255,0.4,0.5294117647058824,0.4823529411764706,0.49411764705882355
93,15.343952059745787,0,0.4253844629619184,0.43739687158980667,0.5210877154835327,0.09860915203876053,0.18826911692988837,0.2687655495237034,0.37754139017261495,0.5019607843137255,0.5058823529411764,0.5058823529411764,0.5058823529411764,0.5176470588235295,0.4980392156862745,0.5294117647058824,0.5019607843137255
94,15.345802068710327,0,0.42373440704709886,0.441423007589414,0.5189096389184501,0.09890763788914857,0.18743232701462884,0.27399845562846514,0.37471046986709844,0.48627450980392156,0.5019607843137255,0.5058823529411764,0.5254901960784314,0.5176470588235295,0.5411764705882353,0.5137254901960784,0.49411764705882355
95,15.404036045074465,0,0.4245264332914528,0.44162101516429697,0.5201636837386815,0.09915274256835326,0.18675640971988486,0.27425581281845945,0.37634039463766605,0.49019607843137253,0.4627450980392157,0.5019607843137255,0.5098039215686274,0.5098039215686274,0.5098039215686274,0.47058823529411764,0.47843137254901963
96,15.40615701675415,0,0.4236684049727132,0.44465711599294144,0.5200976843677477,0.09933905662975559,0.1861248678076365,0.2782019364870179,0.3762546130070645,0.5058823529411764,0.5490196078431373,0.48627450980392156,0.49019607843137253,0.5176470588235295,0.5450980392156862,0.5019607843137255,0.5019607843137255
97,15.494091033935547,0,0.42274437322786196,0.4471652029299525,0.5198336733667531,0.09962297966655953,0.18519047770139666,0.2814617825143846,0.3759114689158159,0.5058823529411764,0.3137254901960784,0.5019607843137255,0.49019607843137253,0.5058823529411764,0.5450980392156862,0.5137254901960784,0.4980392156862745
98,15.49620008468628,0,0.42380040912148453,0.44729720707872384,0.5207577051116044,0.09975084570258909,0.1847935026765956,0.2816333528031247,0.3771124644507648,0.5019607843137255,0.7607843137254902,0.5137254901960784,0.5019607843137255,0.5019607843137255,0.5176470588235295,0.48627450980392156,0.49019607843137253
99,15.52410900592804,0,0.42254636700470494,0.448617253973341,0.5188436395475162,0.1002357984633096,0.18362543115257265,0.2833490627180623,0.3746246882364969,0.4980392156862745,0.4980392156862745,0.4745098039215686,0.4666666666666667,0.4980392156862745,0.49019607843137253,0.5019607843137255,0.4980392156862745
100,15.52668809890747,0,0.4216883373342394,0.4506633209827486,0.5189096389184501,0.10038705741318542,0.18326120269338791,0.2860084057073018,0.37471046986709844,0.5019607843137255,0.5019607843137255,0.49019607843137253,0.4823529411764706,0.5019607843137255,0.4980392156862745,0.48627450980392156,0.5098039215686274
101,15.553909063339233,0,0.42036829179134816,0.44888125956743175,0.5185136278238619,0.10051696143494997,0.18302567654713775,0.28369219978177396,0.3741957607577625,0.5019607843137255,0.5803921568627451,0.4980392156862745,0.4980392156862745,0.5019607843137255,0.5058823529411764,0.49411764705882355,0.49411764705882355
102,15.583964109420776,0,0.42142432768497073,0.4459111608131729,0.5214177258554611,0.10065238383015736,0.1827993090385054,0.2798318612575855,0.37797031589446517,0.49019607843137253,0.45098039215686275,0.49411764705882355,0.5019607843137255,0.4666666666666667,0.48627450980392156,0.48627450980392156,0.48627450980392156
103,15.586934089660645,0,0.42188634355739635,0.44452511319589605,0.5219457451539983,0.10074712205668741,0.182541426540119,0.2780303679551621,0.3786566005631939,0.49411764705882355,0.4627450980392157,0.49411764705882355,0.49411764705882355,0.5568627450980392,0.5058823529411764,0.5058823529411764,0.5098039215686274
104,15.614742040634155,0,0.4216883373342394,0.4424130414086509,0.5197676739958194,0.10078111776700854,0.18223102023006543,0.27528523630778406,0.37582568728521437,0.5019607843137255,0.4588235294117647,0.5019607843137255,0.5019607843137255,0.49019607843137253,0.5098039215686274,0.5019607843137255,0.5019607843137255
105,15.644116044044495,0,0.4286185727171718,0.44267705105791955,0.5191076478450589,0.1008124781509482,0.18175897354107717,0.27562837864214845,0.374967828813977,0.48627450980392156,0.4745098039215686,0.4980392156862745,0.5098039215686274,0.5843137254901961,0.5176470588235295,0.5019607843137255,0.49411764705882355
106,15.646653056144714,0,0.4284205651422888,0.44360108009931887,0.517721601579508,0.10084949570218678,0.18120291791770005,0.2768293706633289,0.3731663372684379,0.48627450980392156,0.47058823529411764,0.4588235294117647,0.47058823529411764,0.5058823529411764,0.48627450980392156,0.4823529411764706,0.48627450980392156
107,15.674747109413149,0,0.42795855062158916,0.4501353043876632,0.5131674462813635,0.10088275352112108,0.18059209318457864,0.2853221245523415,0.3672471464949474,0.5098039215686274,0.5098039215686274,0.4823529411764706,0.47058823529411764,0.45098039215686275,0.4823529411764706,0.49411764705882355,0.5058823529411764
108,15.704536080360413,0,0.42729852717428063,0.4546234562596962,0.5153455201429942,0.10079469848229447,0.18023751880437142,0.2911555284245777,0.3700780632866955,0.4980392156862745,0.48627450980392156,0.5137254901960784,0.5215686274509804,0.5019607843137255,0.4980392156862745,0.49019607843137253,0.49411764705882355
109,15.707287073135376,0,0.4235363994722159,0.4558114963020901,0.5226717693239666,0.10059524819732256,0.18021398885355328,0.29269966453700674,0.3796002389081484,0.5019607843137255,0.4980392156862745,0.4980392156862745,0.5098039215686274,0.4745098039215686,0.5137254901960784,0.5137254901960784,0.5019607843137255
110,15.735273003578186,0,0.42155633318546804,0.4587155956854152,0.5255758646521138,0.10034117638088379,0.18030083515601292,0.2964742214305936,0.3833747905310826,0.48627450980392156,0.4823529411764706,0.5098039215686274,0.5098039215686274,0.49019607843137253,0.4980392156862745,0.4980392156862745,0.5019607843137255
111,15.76476800441742,0,0.4224803635785933,0.4533034120685309,0.5270279156955023,0.09999976106374144,0.1805694487034247,0.28943982202340857,0.3852620707347603,0.5137254901960784,0.5098039215686274,0.5137254901960784,0.48627450980392156,0.4627450980392157,0.48627450980392156,0.5137254901960784,0.5019607843137255
112,15.766913056373596,0,0.42551646711068974,0.44914527056842635,0.5252458542801856,0.09964880586509808,0.18075264429527563,0.28403534387302254,0.38294586480923243,0.5137254901960784,0.4980392156862745,0.5137254901960784,0.5058823529411764,0.5215686274509804,0.5019607843137255,0.5019607843137255,0.4980392156862745
113,15.795106053352356,0,0.4252524574614211,0.4470331987811812,0.522605767249581,0.09937718453184288,0.1806764622802397,0.28129021222564454,0.3795144537637784,0.5019607843137255,0.5254901960784314,0.49411764705882355,0.5058823529411764,0.44313725490196076,0.5019607843137255,0.49019607843137253,0.4980392156862745
114,15.824649095535278,0,0.42597848298311536,0.4509273306320172,0.5176556022085743,0.09918579131806132,0.18036602258938528,0.2863515480416662,0.3730805556378364,0.4980392156862745,0.5137254901960784,0.5098039215686274,0.5137254901960784,0.48627450980392156,0.5098039215686274,0.5058823529411764,0.5019607843137255
115,15.827840089797974,0,0.42274437322786196,0.4568675321957127,0.5170615781321994,0.09907915371447674,0.17990514089983325,0.29407223036069574,0.372308482310969,0.5019607843137255,0.4980392156862745,0.49019607843137253,0.4980392156862745,0.6392156862745098,0.4980392156862745,0.5019607843137255,0.5098039215686274
116,15.855318069458008,0,0.41904824760018294,0.46221371373821124,0.5176556022085743,0.09890465997033748,0.17965757306890398,0.3010208446235108,0.3730805556378364,0.5019607843137255,0.49019607843137253,0.48627450980392156,0.4666666666666667,0.5411764705882353,0.5058823529411764,0.5098039215686274,0.4980392156862745
117,15.885208010673525,0,0.418652233802143,0.4583195818873752,0.5132994490784089,0.09854999774591751,0.17975381694524,0.2959595088074892,0.36741871502680323,0.49019607843137253,0.4980392156862745,0.4980392156862745,0.48627450980392156,0.45098039215686275,0.5137254901960784,0.4823529411764706,0.4980392156862745
118,15.887705087661743,0,0.4179922117065604,0.45541548385577607,0.5088773006324875,0.09804807348330027,0.18005470621328795,0.29218495367078656,0.36167109805582137,0.5019607843137255,0.5176470588235295,0.42745098039215684,0.4,0.35294117647058826,0.49019607843137253,0.5215686274509804,0.5137254901960784
119,15.91514801979065,0,0.41858623172775733,0.45541548385577607,0.5093393165049132,0.09754391095014305,0.1803227101218635,0.29218495367078656,0.3622715958232958,0.5137254901960784,0.5019607843137255,0.5294117647058824,0.5529411764705883,0.5254901960784314,0.47058823529411764,0.5137254901960784,0.5058823529411764
120,15.944948077201845,0,0.4181242158553317,0.45297340034487665,0.5171935822809708,0.09700786623842263,0.18079453192966716,0.28901089454467416,0.3724800525997091,0.49019607843137253,0.48627450980392156,0.4980392156862745,0.4980392156862745,0.5058823529411764,0.5764705882352941,0.5019607843137255,0.49411764705882355
121,15.947140097618105,0,0.41951026347260856,0.4496732898669636,0.5317800785685298,0.09636556516700083,0.18124520612170159,0.2847216285417513,0.3914386186982451,0.4980392156862745,0.4980392156862745,0.5215686274509804,0.5176470588235295,0.5254901960784314,0.5294117647058824,0.5019607843137255,0.49411764705882355
122,15.97499704360962,0,0.4204342952174598,0.4489472643452693,0.5406903775347582,0.09558265537805287,0.18160972270990403,0.2837779884399124,0.40301963778457883,0.5058823529411764,0.4666666666666667,0.5254901960784314,0.5372549019607843,0.5215686274509804,0.5333333333333333,0.49411764705882355,0.5137254901960784
123,16.004223108291626,0,0.42650650092992665,0.4490792684940406,0.5449145211092485,0.09469384060625438,0.18174945825595576,0.2839495587286525,0.4085099010793348,0.5254901960784314,0.5098039215686274,0.47058823529411764,0.44313725490196076,0.5176470588235295,0.4823529411764706,0.48627450980392156,0.5137254901960784
124,16.00652003288269,0,0.43158867282315655,0.45072932576058616,0.550392714910874,0.09382498052581649,0.18144912767710072,0.2860941943654403,0.4156300961721955,0.48627450980392156,0.5098039215686274,0.5176470588235295,0.5529411764705883,0.47843137254901963,0.5333333333333333,0.4980392156862745,0.4823529411764706
125,16.034772038459778,0,0.4269025147279666,0.4630057413342911,0.5674212852472509,0.09328835077163938,0.18038744779286675,0.30205026986971967,0.43776270909865406,0.47058823529411764,0.5137254901960784,0.5137254901960784,0.5019607843137255,0.4196078431372549,0.4549019607843137,0.5137254901960784,0.49019607843137253
126,16.064139008522037,0,0.42241436150420764,0.4730380823237056,0.569071350624152,0.09293346717980336,0.17889669109473674,0.31508964519476523,0.4399073552767474,0.5215686274509804,0.5411764705882353,0.48627450980392156,0.4745098039215686,0.48627450980392156,0.43529411764705883,0.5019607843137255,0.5254901960784314
127,16.06647801399231,0,0.4337667466847874,0.47488614175823024,0.5647151974939867,0.09260965584288929,0.17724471215612464,0.31749163099401034,0.43424551466571437,0.5529411764705883,0.4549019607843137,0.5215686274509804,0.5137254901960784,0.5137254901960784,0.3254901960784314,0.49019607843137253,0.49019607843137253
128,16.094744086265564,0,0.4416870172386826,0.48188238327072613,0.5579829669824853,0.09245921384419171,0.17537883431643309,0.3265848844073817,0.4254954053435916,0.5450980392156862,0.4196078431372549,0.4980392156862745,0.4823529411764706,0.5647058823529412,0.3333333333333333,0.5019607843137255,0.5176470588235295
129,16.124107003211975,0,0.43937693652482857,0.48868061315316125,0.5540888337799232,0.09264400293006128,0.17335311339039908,0.335420775360106,0.4204340677706858,0.42745098039215684,0.5490196078431373,0.5294117647058824,0.5333333333333333,0.4588235294117647,0.23921568627450981,0.5137254901960784,0.47843137254901963
130,16.126878023147587,0,0.4432050676530049,0.48736057166544794,0.544980525887086,0.09308139683401727,0.1716259380488177,0.33370507247270537,0.4085956897374734,0.37254901960784315,0.43529411764705883,0.41568627450980394,0.45098039215686275,0.5882352941176471,0.9725490196078431,0.4823529411764706,0.5098039215686274
131,16.154758095741276,0,0.45112533820690015,0.4771962238238102,0.5296020074103509,0.0935767679183659,0.17027568289827436,0.3204941233451512,0.38860770542026557,0.6627450980392157,0.4,0.47058823529411764,0.45098039215686275,0.49411764705882355,0.7764705882352941,0.5176470588235295,0.5294117647058824
132,16.18413507938385,0,0.4539634341641136,0.471982046430083,0.529403998483742,0.09441107711305828,0.16879514248208322,0.31371707937107624,0.38835034647338695,0.3215686274509804,0.396078431372549,0.4823529411764706,0.5254901960784314,0.4745098039215686,0.4196078431372549,0.48627450980392156,0.4470588235294118
133,16.186791062355038,0,0.4502013064620489,0.4672298849087814,0.5265659011748026,0.0957305955735723,0.16726203960277128,0.3075405331644757,0.38466157472417006,0.9254901960784314,0.6,0.5058823529411764,0.5058823529411764,0.4823529411764706,0.4235294117647059,0.4823529411764706,0.5019607843137255
134,16.214700102806088,0,0.4463731753338726,0.4654478234934646,0.51692957668688,0.09750124325914258,0.16551484105134345,0.3052243272389479,0.3721369155359975,0.0,0.4,0.5450980392156862,0.5137254901960784,0.4549019607843137,0.2,0.5098039215686274,0.4666666666666667
135,16.244731068611145,0,0.4473632091531095,0.45990363572780907,0.5052471770791941,0.09968648049104775,0.1637874952919894,0.2980183575430227,0.35695290281727987,0.24313725490196078,0.6823529411764706,0.5490196078431373,0.5764705882352941,0.45098039215686275,0.5843137254901961,0.5058823529411764,0.5686274509803921
136,16.273546099662777,0,0.45772556186617824,0.4500693023132776,0.48907662830292714,0.10243311603134744,0.16179382871917553,0.2852363394079715,0.33593548974009463,0.5098039215686274,0.5058823529411764,0.5686274509803921,0.5176470588235295,0.43137254901960786,0.5333333333333333,0.4745098039215686,0.48627450980392156
137,16.27528703212738,0,0.46287373718551983,0.43581281639764685,0.473170085120751,0.10581756907445196,0.15958291286700918,0.2667066990312857,0.315261213726621,0.7490196078431373,0.6392156862745098,0.5333333333333333,0.49411764705882355,0.5607843137254902,0.5098039215686274,0.5098039215686274,0.5098039215686274
138,16.303941011428833,0,0.464391787599842,0.4243284270682958,0.45693353427009836,0.10977703276515346,0.15743979693510138,0.25178004701633094,0.29415801550506576,0.5529411764705883,0.043137254901960784,0.47058823529411764,0.49019607843137253,0.5647058823529412,0.6196078431372549,0.47843137254901963,0.49411764705882355
139,16.334102034568787,0,0.46986997464283786,0.42142432768497073,0.4411589979401454,0.11401476056847575,0.15544670134967012,0.24800549012274403,0.27365531329410075,0.49019607843137253,0.796078431372549,0.4196078431372549,0.5411764705882353,0.5568627450980392,0.45098039215686275,0.5019607843137255,0.44313725490196076
140,16.336270093917847,0,0.4816843770475691,0.40584779865955556,0.4272325250998949,0.11832362461525556,0.15388018077495674,0.2277601447503965,0.25555460215303355,0.4588235294117647,0.2,0.4,0.4980392156862745,0.5686274509803921,0.4392156862745098,0.5098039215686274,0.5058823529411764
141,16.364779114723206,1,0.492838751949814,0.3835390403391924,0.4152201171478696,0.12253826695947603,0.1527761599801936,0.19876469163712204,0.2399416663477922,0.5607843137254902,1.0,0.47843137254901963,0.47843137254901963,0.47843137254901963,0.4549019607843137,0.4823529411764706,0.4980392156862745
142,16.393216013908383,1,0.5044551467796623,0.3574021519720337,0.3972015047467276,0.12639511279776686,0.15199101192070563,0.16479368750081916,0.21652226202502065,0.4627450980392157,0.20392156862745098,0.5529411764705883,0.5176470588235295,0.596078431372549,0.5254901960784314,0.5137254901960784,0.5098039215686274
143,16.39486300945282,1,0.5086792903541526,0.3494158806954787,0.3981915383632056,0.12979727347727066,0.15144637428809732,0.1544136586787816,0.21780904244080698,0.49019607843137253,0.6274509803921569,0.5019607843137255,0.4627450980392157,0.5647058823529412,0.5019607843137255,0.4980392156862745,0.4980392156862745
144,16.423564076423645,1,0.5059732026008884,0.35165995663149513,0.3940333970658599,0.1325532345591923,0.15108198243867693,0.15733036061489966,0.21240456455395365,0.5333333333333333,0.5764705882352941,0.5058823529411764,0.5137254901960784,0.5137254901960784,0.5490196078431373,0.5176470588235295,0.4823529411764706
145,16.453227043151855,1,0.506831230919628,0.35555408848233117,0.40215167303187654,0.1340734998852579,0.15121950431056821,0.16239169643092127,0.22295616436748497,0.5764705882352941,0.9058823529411765,0.5215686274509804,0.48627450980392156,0.5058823529411764,0.5294117647058824,0.5019607843137255,0.5529411764705883
146,16.455124020576473,1,0.5060392073787259,0.33634743617396784,0.4062438120520777,0.1346321311009519,0.15193876921051913,0.13742815617140908,0.22827485684643564,0.5254901960784314,0.5843137254901961,0.5137254901960784,0.4980392156862745,0.4117647058823529,0.4549019607843137,0.4823529411764706,0.5215686274509804
147,16.483890056610107,1,0.5063032129728167,0.330077222886618,0.40776186368295336,0.13440366235875137,0.15265461872747962,0.12927854637364508,0.2302479202619107,0.5372549019607843,0.47843137254901963,0.5019607843137255,0.4745098039215686,0.3176470588235294,0.4392156862745098,0.4980392156862745,0.48627450980392156
148,16.513614058494568,1,0.5077552640162052,0.32486304549289086,0.40215167303187654,0.13325739201144027,0.15338465332790951,0.1225015023995701,0.22295616436748497,0.5294117647058824,0.38823529411764707,0.4980392156862745,0.47058823529411764,0.37254901960784315,0.5058823529411764,0.4588235294117647,0.5098039215686274
149,16.515642046928402,1,0.5101313413975411,0.3237410075248826,0.39693749577332194,0.13093040760101216,0.1543067874095912,0.12104315143151106,0.2161791205690984,0.49411764705882355,0.25882352941176473,0.49019607843137253,0.47843137254901963,0.5098039215686274,0.4549019607843137,0.47843137254901963,0.44313725490196076
150,16.54453706741333,1,0.5149495063449543,0.32836116489741285,0.39561745090629374,0.1266753709740163,0.1555842320059827,0.12704812734937151,0.21446341328948715,0.3686274509803922,0.5607843137254902,0.45098039215686275,0.49019607843137253,0.49019607843137253,0.4823529411764706,0.4745098039215686,0.32941176470588235
151,16.574149012565613,1,0.5104613517694695,0.33271731126894855,0.40710184104668035,0.12109349319293439,0.15769958740978796,0.13270995917598336,0.22939006635857243,0.6705882352941176,0.6862745098039216,0.5686274509803921,0.5176470588235295,0.49411764705882355,0.5411764705882353,0.49411764705882355,0.6705882352941176
152,16.576767086982727,1,0.4952808381641653,0.3354234044291166,0.43739687158980667,0.1149991902520472,0.16048515726204768,0.13622716063646015,0.2687655495237034,0.6313725490196078,0.4470588235294118,0.5215686274509804,0.5176470588235295,0.5372549019607843,0.5098039215686274,0.49411764705882355,0.49019607843137253
153,16.603904008865356,1,0.48188238327072613,0.34479572332294844,0.491056694589675,0.1093708657219338,0.1631449798806886,0.14840868276092115,0.3385090493418484,0.8235294117647058,0.36470588235294116,0.48627450980392156,0.4745098039215686,0.4549019607843137,0.5843137254901961,0.28627450980392155,0.4549019607843137
154,16.63372802734375,1,0.464589795174725,0.32783314695060156,0.560161043547568,0.10446419721124141,0.1647875665160771,0.12636184443752702,0.4283263256491081,0.8980392156862745,0.5764705882352941,0.5490196078431373,0.4745098039215686,0.4117647058823529,0.42745098039215684,0.6039215686274509,0.6666666666666666
155,16.635812997817993,1,0.46524981727030756,0.29813213778039815,0.5513167412488215,0.10098676106897693,0.16319906029180514,0.0877584310854948,0.41683108467960744,0.32941176470588235,0.5490196078431373,0.49411764705882355,0.5647058823529412,0.6274509803921569,0.4470588235294118,0.4823529411764706,0.5333333333333333
156,16.664104104042053,1,0.48538050132352223,0.3560821077808684,0.40261368863395697,0.09883841840641253,0.15726752916331235,0.16307798109965002,0.22355666178358258,0.18823529411764706,0.29411764705882354,0.5411764705882353,0.49019607843137253,0.2196078431372549,0.0,0.47058823529411764,0.3333333333333333
157,16.69371008872986,1,0.33951554385483557,0.6737509001312026,0.44109299586575973,0.09939820389506161,0.14965553473179213,0.5759629315693935,0.2735695281497307,0.4235294117647059,0.5019607843137255,0.5176470588235295,0.5450980392156862,0.18823529411764706,0.24705882352941178,0.6,0.7019607843137254
158,16.695856094360348,1,0.2694871672072692,0.7679361089971245,0.5172595870588083,0.10049448210091592,0.1499036366555347,0.6983786558521305,0.37256584125784764,0.24313725490196078,0.24313725490196078,0.4745098039215686,0.49019607843137253,0.8862745098039215,1.0,0.3568627450980392,0.40784313725490196
159,16.724130034446713,1,0.3366114444715105,0.5765295931400882,0.5580489717603229,0.09537334721552995,0.15787796562501352,0.4496010871318665,0.4255811940017301,0.7450980392156863,0.8862745098039215,0.49019607843137253,0.4627450980392157,0.3686274509803922,0.03137254901960784,0.9333333333333333,0.5019607843137255
160,16.753719091415405,1,0.4826744081633541,0.4777902438450072,0.5477526184181878,0.09007922247892644,0.16422729612737386,0.32126619140136575,0.41219867282855177,0.41568627450980394,0.0,0.3803921568627451,0.47058823529411764,0.596078431372549,0.4980392156862745,0.807843137254902,0.4588235294117647
161,16.755524039268494,1,0.5051151729304229,0.4463731753338726,0.5305920385261359,0.08880388790052439,0.16801270353811543,0.2804323572681757,0.389894482585816,0.35294117647058826,0.47843137254901963,0.4666666666666667,0.48627450980392156,0.6235294117647059,0.7137254901960784,0.29411764705882354,0.4470588235294118
162,16.784988045692447,1,0.4772622258981959,0.39779552490309716,0.5388423248588633,0.0886149754073099,0.16908653227696804,0.2172943302569236,0.40061766076975497,0.396078431372549,0.3254901960784314,0.47058823529411764,0.5137254901960784,0.611764705882353,0.6078431372549019,0.3411764705882353,0.5333333333333333
163,16.814168095588688,1,0.4583855826100349,0.4363408356961841,0.5280179508664651,0.08930128467241821,0.166609690910299,0.2673929837000144,0.38654885317096355,0.49411764705882355,0.6666666666666666,0.4980392156862745,0.4823529411764706,0.5529411764705883,0.5411764705882353,0.4470588235294118,0.4549019607843137
164,16.816487073898315,1,0.4544254500365392,0.472378060228123,0.5086132909832188,0.09028425087140582,0.16432434465669832,0.31423179199418066,0.361327955721457,0.5176470588235295,0.38823529411764707,0.4980392156862745,0.5019607843137255,0.4666666666666667,0.49019607843137253,0.42745098039215684,0.43529411764705883
165,16.844513058662415,1,0.4585175894622581,0.47435813057004866,0.5068972329940137,0.09049997166145698,0.16347779524940606,0.3168053568665871,0.3590975366971835,0.5529411764705883,0.3764705882352941,0.5137254901960784,0.4745098039215686,0.48627450980392156,0.4823529411764706,0.4823529411764706,0.4745098039215686
166,16.873691082000732,1,0.4555474880045475,0.46742789113193844,0.5125074241857809,0.09014444153621538,0.1638738180429413,0.3077978885975858,0.36638929329436287,0.4666666666666667,0.6705882352941176,0.5176470588235295,0.5254901960784314,0.5098039215686274,0.4980392156862745,0.5294117647058824,0.5333333333333333
167,16.8766371011734,1,0.4471652029299525,0.45310540314192205,0.5183816236750907,0.08974783194333924,0.16484963899366656,0.28918246307652995,0.3740241904690224,0.38823529411764707,0.5490196078431373,0.4588235294117647,0.4549019607843137,0.5137254901960784,0.5333333333333333,0.5058823529411764,0.5019607843137255
168,16.904229044914242,1,0.43851890955781486,0.45178536165420874,0.5223417576003123,0.08954273327548969,0.16563183373072302,0.2874667601891293,0.37917131142941407,0.42745098039215684,0.5333333333333333,0.5098039215686274,0.5294117647058824,0.5372549019607843,0.4980392156862745,0.5058823529411764,0.5294117647058824
169,16.93383502960205,1,0.4405649792706744,0.4499372954610543,0.5177876036538936,0.08953369059223268,0.16596492668715265,0.28506476560546296,0.37325212241280786,0.5019607843137255,0.5294117647058824,0.5098039215686274,0.5215686274509804,0.5176470588235295,0.5019607843137255,0.5098039215686274,0.5176470588235295
170,16.93582808971405,1,0.43970694960020884,0.45204936724829947,0.520427694739676,0.08968474222976654,0.16597602668187145,0.28780989725284095,0.37668353872891464,0.5450980392156862,0.5176470588235295,0.5058823529411764,0.4980392156862745,0.5725490196078431,0.5411764705882353,0.5137254901960784,0.5490196078431373
171,16.964126110076904,1,0.4319186845468108,0.46227971581259686,0.5219457451539983,0.08990125361773214,0.1656444727560486,0.3011066297678809,0.3786566005631939,0.5294117647058824,0.5450980392156862,0.49019607843137253,0.5137254901960784,0.5215686274509804,0.49411764705882355,0.5058823529411764,0.5137254901960784
172,17.024214029312134,1,0.42274437322786196,0.4735000954926793,0.5276219370684252,0.09026599860088766,0.16491542201080112,0.3156901394484712,0.38603414054785906,0.47058823529411764,0.49019607843137253,0.5176470588235295,0.5686274509803921,0.4980392156862745,0.5529411764705883,0.49019607843137253,0.49019607843137253
173,17.027241110801693,1,0.41614414821685786,0.47924229488839565,0.5303280329320451,0.09092041163235876,0.16398272202721395,0.32315347160504343,0.3895513455221044,0.5294117647058824,0.5882352941176471,0.5529411764705883,0.49411764705882355,0.5411764705882353,0.49019607843137253,0.4980392156862745,0.49019607843137253
174,17.03017807006836,1,0.42122632146181377,0.48208039219733506,0.5342881573951852,0.09170999055393612,0.1630160122782316,0.3268422433542603,0.39469845418430627,0.49411764705882355,0.5019607843137255,0.5019607843137255,0.5058823529411764,0.4588235294117647,0.4980392156862745,0.49411764705882355,0.49411764705882355
175,17.054092049598697,1,0.43561481017448983,0.473170085120751,0.5262358908028743,0.09240777227322518,0.162094224302748,0.315261213726621,0.3842326490023199,0.49411764705882355,0.5254901960784314,0.4588235294117647,0.4627450980392157,0.5215686274509804,0.5176470588235295,0.4980392156862745,0.5137254901960784
176,17.055889010429382,1,0.44729720707872384,0.45640551767501303,0.5164675567592766,0.09330025717623092,0.16114105486071367,0.29347173435010554,0.3715364124978703,0.4980392156862745,0.5254901960784314,0.5058823529411764,0.4666666666666667,0.4980392156862745,0.49019607843137253,0.49019607843137253,0.4980392156862745
177,17.08423101902008,0,0.4630057413342911,0.4417530193130683,0.4978549258238361,0.09458434630887229,0.15983168416365265,0.2744273831071995,0.34734494205145683,0.4588235294117647,0.49019607843137253,0.4588235294117647,0.4745098039215686,0.49019607843137253,0.4745098039215686,0.4980392156862745,0.49019607843137253
178,17.11393904685974,0,0.47138802370543414,0.43917893165339755,0.4907926849404064,0.09596989023654795,0.1583745419319606,0.271081753692347,0.338165907007484,0.5254901960784314,0.44313725490196076,0.49411764705882355,0.45098039215686275,0.5058823529411764,0.48627450980392156,0.5058823529411764,0.5019607843137255
179,17.115575075149536,0,0.4724440595990567,0.44069698341944574,0.48835060278123293,0.0970479214425369,0.15733198397595063,0.2730548172835105,0.3349918496382558,0.49019607843137253,0.5176470588235295,0.5490196078431373,0.5372549019607843,0.5019607843137255,0.49019607843137253,0.49019607843137253,0.48627450980392156
180,17.144259095191956,0,0.4757441768355996,0.4356808122488755,0.485446500694456,0.09764138991610984,0.15704434864271735,0.2665351287425456,0.3312172892309004,0.5450980392156862,0.5019607843137255,0.5019607843137255,0.5294117647058824,0.5254901960784314,0.4980392156862745,0.5098039215686274,0.5098039215686274
181,17.173609018325806,0,0.48491848950627436,0.42023628764257687,0.47792224799377847,0.0977787782647978,0.15747224131662593,0.24646135401031496,0.3214377616901058,0.49019607843137253,0.47843137254901963,0.48627450980392156,0.49411764705882355,0.4823529411764706,0.5019607843137255,0.4980392156862745,0.5019607843137255
182,17.175648093223572,0,0.4899346566216668,0.4080258727915316,0.4769982135454754,0.09780843447101077,0.15797495090650485,0.2305910618935214,0.32023676264138834,0.4627450980392157,0.4823529411764706,0.5058823529411764,0.5058823529411764,0.5058823529411764,0.4980392156862745,0.49411764705882355,0.49411764705882355
183,17.204609036445618,0,0.49132070423894364,0.40584779865955556,0.473170085120751,0.09796402941122628,0.15807419729803152,0.2277601447503965,0.315261213726621,0.49019607843137253,0.5254901960784314,0.4823529411764706,0.47843137254901963,0.48627450980392156,0.49019607843137253,0.4980392156862745,0.49019607843137253
184,17.233818054199222,0,0.48736057166544794,0.41713418203609476,0.47072800296157746,0.09817682850276252,0.15779458214141914,0.24242944168361802,0.3120871563573929,0.5215686274509804,0.5372549019607843,0.4980392156862745,0.48627450980392156,0.47843137254901963,0.5019607843137255,0.5098039215686274,0.5294117647058824
185,17.237619042396545,0,0.4826084074406944,0.42696851680235226,0.4728400747488226,0.09814645021712104,0.157763314872345,0.25521146157555347,0.3148322880047709,0.5058823529411764,0.4627450980392157,0.5294117647058824,0.4980392156862745,0.4745098039215686,0.48627450980392156,0.5058823529411764,0.4980392156862745
186,17.263852000236508,0,0.48188238327072613,0.43086264865318824,0.4727080706000513,0.09766126027702622,0.15822304580271043,0.26027279739157505,0.3146607177160308,0.5019607843137255,0.4823529411764706,0.49019607843137253,0.4745098039215686,0.5019607843137255,0.5019607843137255,0.49411764705882355,0.49411764705882355
187,17.29325807094574,0,0.4851164903225276,0.4287505768659431,0.4734340961217456,0.09679494065122009,0.15915700195853943,0.25752766574419705,0.31560435781786966,0.5176470588235295,0.5019607843137255,0.4745098039215686,0.49411764705882355,0.47058823529411764,0.5215686274509804,0.5372549019607843,0.5058823529411764
188,17.295018076896667,0,0.4868325510151847,0.426440498855541,0.47429212579221114,0.09573030393078608,0.1602277789894423,0.25452517866370894,0.31671956820844854,0.4823529411764706,0.4980392156862745,0.49411764705882355,0.5333333333333333,0.5019607843137255,0.5058823529411764,0.48627450980392156,0.49411764705882355
189,17.324127078056335,0,0.48485248472843684,0.42881657894032876,0.47600818242969034,0.0945968500541103,0.1612264534905478,0.2576134508885671,0.3189499854758379,0.5098039215686274,0.4980392156862745,0.48627450980392156,0.4666666666666667,0.5176470588235295,0.49411764705882355,0.5058823529411764,0.4980392156862745
190,17.353978037834167,0,0.4838624536126518,0.43838690540904357,0.47930829561105537,0.09347761815547323,0.1619966258686519,0.2700523302030224,0.3232392549925292,0.49411764705882355,0.5058823529411764,0.5215686274509804,0.5176470588235295,0.5411764705882353,0.49019607843137253,0.4980392156862745,0.5058823529411764
191,17.355725049972534,0,0.48359844125993134,0.4428090552066909,0.4799683204100899,0.09227003254768631,0.16285626054987035,0.2757999489308885,0.3240971117068823,0.5058823529411764,0.5254901960784314,0.5058823529411764,0.5098039215686274,0.48627450980392156,0.5019607843137255,0.4980392156862745,0.5019607843137255
192,17.384075045585632,0,0.48458847507916825,0.4415550130899113,0.48208039219733506,0.09095065815168117,0.16384251036552927,0.2741700276740894,0.3268422433542603,0.49411764705882355,0.5019607843137255,0.5019607843137255,0.5372549019607843,0.5019607843137255,0.5019607843137255,0.49019607843137253,0.49019607843137253
193,17.41382908821106,0,0.48538050132352223,0.43957494545143744,0.4826744081633541,0.08971639425649239,0.16476416130404103,0.2715964663154515,0.3276143061398221,0.5019607843137255,0.4980392156862745,0.5176470588235295,0.49019607843137253,0.5137254901960784,0.48627450980392156,0.49019607843137253,0.49411764705882355
194,17.415709018707275,0,0.48445646957867095,0.43541680395133286,0.48181638119634046,0.08854722292292623,0.165804094474975,0.2661919881650655,0.3264990992630117,0.4980392156862745,0.48627450980392156,0.47058823529411764,0.4588235294117647,0.49411764705882355,0.5098039215686274,0.5019607843137255,0.4980392156862745
195,17.444462060928345,0,0.47944029975982666,0.4365388419193411,0.4852484998782028,0.08745261024334498,0.1668009453302245,0.2676503391331245,0.3309599408253273,0.48627450980392156,0.4980392156862745,0.5254901960784314,0.49019607843137253,0.5058823529411764,0.5019607843137255,0.49411764705882355,0.49411764705882355
196,17.474370002746582,0,0.47066199818373994,0.4418850234618396,0.49204672840891195,0.08643622810584019,0.16777759377343357,0.2745989533959396,0.3397958300211673,0.49019607843137253,0.49411764705882355,0.49019607843137253,0.5058823529411764,0.47843137254901963,0.4823529411764706,0.4980392156862745,0.4980392156862745
197,17.476168036460873,0,0.45732954671641235,0.44808923467480377,0.5000990017598526,0.08540950494761447,0.16921539270948552,0.28266277804933354,0.3502616439875749,0.5058823529411764,0.5019607843137255,0.47843137254901963,0.49019607843137253,0.47058823529411764,0.4823529411764706,0.49411764705882355,0.5019607843137255
198,17.50441300868988,0,0.4448551249195503,0.4428090552066909,0.5014850493771295,0.0843569555908502,0.17114479421316062,0.2757999489308885,0.35206313728999833,0.592156862745098,0.5176470588235295,0.48627450980392156,0.5450980392156862,0.5411764705882353,0.5254901960784314,0.49411764705882355,0.5411764705882353
199,17.534221053123474,0,0.4432050676530049,0.4364068377705697,0.49693089407898483,0.08334828617522187,0.1732997656000166,0.2674787688443845,0.3461439465165079,0.592156862745098,0.48627450980392156,0.5098039215686274,0.4235294117647059,0.5294117647058824,0.5058823529411764,0.5058823529411764,0.5215686274509804
200,17.535778045654293,0,0.43983895374898013,0.4411589979401454,0.5021450741761639,0.08263484007592128,0.17514221187440823,0.27365531329410075,0.3529209940043514,0.47058823529411764,0.5019607843137255,0.5019607843137255,0.5215686274509804,0.49019607843137253,0.49019607843137253,0.5058823529411764,0.4980392156862745
201,17.564360022544857,0,0.4246584387919501,0.4562735108227898,0.5114513882921583,0.08221333719004566,0.17674220460793494,0.29330016054759694,0.3650167274706739,0.4745098039215686,0.4117647058823529,0.5098039215686274,0.5058823529411764,0.4980392156862745,0.4588235294117647,0.49411764705882355,0.4980392156862745
202,17.594045042991635,0,0.4098739354701985,0.4768662121001559,0.5149495063449543,0.08198344010094637,0.1785100237098558,0.3200651958664168,0.36956335066359103,0.4392156862745098,0.5607843137254902,0.5176470588235295,0.5098039215686274,0.5019607843137255,0.5294117647058824,0.5058823529411764,0.47058823529411764
203,17.59662699699402,0,0.4044617513126239,0.4642597834510707,0.5096033248024557,0.08160719455346205,0.1811690188360129,0.3036801911265188,0.36261473640077596,0.47058823529411764,0.7568627450980392,0.47058823529411764,0.49019607843137253,0.4666666666666667,0.5764705882352941,0.48627450980392156,0.4627450980392157
204,17.624505043029785,0,0.40690383455317813,0.44393109317469914,0.5119134028128579,0.08133917307604396,0.18388191517109262,0.2772582998989475,0.3656172234812641,0.5098039215686274,0.403921568627451,0.5176470588235295,0.47843137254901963,0.4980392156862745,0.47058823529411764,0.5137254901960784,0.5137254901960784
205,17.654561042785645,0,0.39792752938979997,0.45402943623849923,0.5289419826113164,0.08155351295507124,0.18529730504848071,0.29038346036836316,0.38774984870591245,0.4745098039215686,0.4823529411764706,0.48627450980392156,0.5254901960784314,0.49019607843137253,0.47058823529411764,0.4823529411764706,0.47843137254901963
206,17.65679907798767,0,0.3832090292914011,0.4855125054722935,0.5360042275499239,0.08198514427867305,0.18599493743260812,0.33130307788903895,0.39692888902053813,0.49019607843137253,0.45098039215686275,0.48627450980392156,0.5019607843137255,0.4666666666666667,0.39215686274509803,0.4980392156862745,0.5019607843137255
207,17.684047102928158,0,0.37726882772770554,0.48445646957867095,0.5297340088556703,0.08215912852637856,0.1874001549501637,0.32993051206534996,0.3887792721952371,0.5215686274509804,0.4470588235294118,0.4980392156862745,0.5058823529411764,0.5215686274509804,0.6196078431372549,0.5019607843137255,0.5098039215686274
208,17.713973999023438,0,0.38175697959973853,0.46095967162143164,0.5224077569712461,0.08182430855272689,0.1898658155054382,0.29939092336671175,0.3792570930600156,0.5372549019607843,0.4588235294117647,0.5058823529411764,0.5333333333333333,0.5058823529411764,0.48627450980392156,0.5019607843137255,0.5215686274509804
209,17.716184020042423,0,0.3860471252486145,0.45567949215331877,0.534222166134607,0.08148748046037256,0.19153768588757777,0.2925280942482667,0.3946126830950102,0.49411764705882355,0.49019607843137253,0.48627450980392156,0.4745098039215686,0.4745098039215686,0.47058823529411764,0.5019607843137255,0.5019607843137255
210,17.744089007377625,0,0.3649924094505487,0.479572305260324,0.5529667931084632,0.08147272614640474,0.19164622092615702,0.3235823973268936,0.41897571328885824,0.4823529411764706,0.5019607843137255,0.4823529411764706,0.49411764705882355,0.4745098039215686,0.47843137254901963,0.49411764705882355,0.49411764705882355
211,17.774038076400753,0,0.35080192831275553,0.49303676222814885,0.5442545003653918,0.08136349362477655,0.19191389454049276,0.3410826107004863,0.40765204963563456,0.4627450980392157,0.5137254901960784,0.4980392156862745,0.5058823529411764,0.4823529411764706,0.5764705882352941,0.4980392156862745,0.48627450980392156
212,17.776756048202515,0,0.3611642796740983,0.47066199818373994,0.5274239308452682,0.08058576137372607,0.19358752883442362,0.3120013676992543,0.38577678511474894,0.5450980392156862,0.36470588235294116,0.5019607843137255,0.49019607843137253,0.5137254901960784,0.4980392156862745,0.49411764705882355,0.49411764705882355
213,17.80440402030945,0,0.37786284774890255,0.44432710562101313,0.5201636837386815,0.07939331132379014,0.19569944074509044,0.27777301076516775,0.37634039463766605,0.5098039215686274,0.5098039215686274,0.49019607843137253,0.47058823529411764,0.5450980392156862,0.4549019607843137,0.5019607843137255,0.4980392156862745
214,17.834099054336548,0,0.37311068622760096,0.45495346933507647,0.522803772121012,0.07853236776380225,0.1960420560141785,0.2915844576601963,0.37977180744000427,0.47843137254901963,0.5647058823529412,0.48627450980392156,0.5333333333333333,0.49411764705882355,0.4823529411764706,0.5019607843137255,0.48627450980392156
215,17.836367011070248,0,0.35852418994004187,0.47079400773941504,0.5108573669192353,0.07808977523933772,0.19538749013377726,0.3121729450155314,0.3642446576575751,0.4823529411764706,0.5176470588235295,0.4980392156862745,0.4823529411764706,0.4980392156862745,0.4823529411764706,0.5058823529411764,0.4980392156862745
216,17.864370107650753,0,0.3561481098552541,0.4727740699709851,0.5048511619294282,0.07770614726421674,0.19543076922049823,0.31474649934663235,0.3564381884372912,0.4980392156862745,0.5176470588235295,0.4980392156862745,0.5137254901960784,0.5254901960784314,0.6509803921568628,0.5019607843137255,0.49411764705882355
217,17.894585013389584,0,0.36083426795044404,0.46194970544066855,0.5137614690060123,0.07716811903017319,0.19630973665605125,0.30067770404603067,0.3680192180649305,0.49019607843137253,0.5294117647058824,0.5058823529411764,0.5058823529411764,0.49411764705882355,0.4588235294117647,0.49411764705882355,0.5019607843137255
218,17.89697003364563,0,0.3583921857912706,0.46056365917511766,0.5149495063449543,0.07665628594036158,0.1968892045190015,0.2988762125004915,0.36956335066359103,0.5058823529411764,0.49019607843137253,0.5019607843137255,0.49411764705882355,0.5019607843137255,0.4627450980392157,0.5098039215686274,0.4980392156862745
219,17.95370101928711,0,0.3482278393013588,0.47759223762185016,0.5228697768988495,0.07631363553358841,0.19689999881586004,0.3210088359682557,0.3798575960981428,0.5019607843137255,0.5215686274509804,0.49411764705882355,0.4980392156862745,0.4980392156862745,0.48627450980392156,0.49411764705882355,0.4980392156862745
220,17.984848022460938,0,0.34156161356769504,0.48854860900438996,0.5262358908028743,0.0760102339210568,0.19719976016421667,0.3352492050713659,0.3842326490023199,0.49019607843137253,0.49019607843137253,0.49411764705882355,0.4980392156862745,0.4588235294117647,0.49019607843137253,0.49411764705882355,0.4980392156862745
221,18.014058113098145,0,0.3486898565255104,0.44756121807971844,0.5052471770791941,0.07418960287845106,0.19949474292795236,0.28197649689437326,0.35695290281727987,0.4980392156862745,0.5176470588235295,0.5019607843137255,0.5019607843137255,0.5176470588235295,0.5176470588235295,0.49411764705882355,0.5019607843137255
222,18.016266107559204,0,0.3432776702051743,0.45673552804694134,0.498448945845033,0.07392305894069086,0.19875508587246152,0.2939006600719557,0.34811701010767143,0.5058823529411764,0.5254901960784314,0.5019607843137255,0.49411764705882355,0.5019607843137255,0.5058823529411764,0.5058823529411764,0.5058823529411764
223,18.044151067733765,0,0.3381294975892846,0.47026598844087786,0.5015510514515151,0.0737195309273647,0.19801525558818325,0.31148666034680267,0.35214892243436835,0.5019607843137255,0.5137254901960784,0.4823529411764706,0.4980392156862745,0.5215686274509804,0.48627450980392156,0.5019607843137255,0.49411764705882355
224,18.07400107383728,0,0.33357534229114005,0.47554616790899074,0.5019470652495551,0.07345366163315813,0.1978868942864824,0.31834948946524766,0.35266363505747284,0.4980392156862745,0.5098039215686274,0.5058823529411764,0.4980392156862745,0.49019607843137253,0.4980392156862745,0.49411764705882355,0.4980392156862745
225,18.076617002487183,0,0.334763382333534,0.4681539166536327,0.4995049817386556,0.07303173709506146,0.1985297285722754,0.3087415286994246,0.34948957593136043,0.5019607843137255,0.49411764705882355,0.4980392156862745,0.5019607843137255,0.5098039215686274,0.5058823529411764,0.5019607843137255,0.4980392156862745
226,18.10405600070953,0,0.3432116694825146,0.45607550595135876,0.5008910293559325,0.07254927032556086,0.19945188303381445,0.2930428068713711,0.3512910692337838,0.4980392156862745,0.49411764705882355,0.4980392156862745,0.4980392156862745,0.4745098039215686,0.49019607843137253,0.5058823529411764,0.4980392156862745
227,18.134070038795468,0,0.3488878627486674,0.44775922295114945,0.500231003205172,0.07213110551976842,0.20009524420919533,0.28223385057059913,0.35043321076254647,0.5019607843137255,0.5098039215686274,0.49411764705882355,0.5058823529411764,0.5137254901960784,0.5019607843137255,0.49019607843137253,0.5019607843137255
228,18.136295080184933,0,0.35139594698222654,0.4503993126852059,0.5028050949200207,0.07183550095955747,0.20013871040408934,0.28566526512982165,0.3537788454480517,0.5019607843137255,0.5176470588235295,0.5019607843137255,0.49411764705882355,0.5098039215686274,0.4980392156862745,0.5019607843137255,0.5019607843137255
229,18.16403007507324,0,0.34862385445112476,0.45990363572780907,0.5050491708560371,0.07166251110833992,0.19987047195146587,0.2980183575430227,0.3566955473841698,0.49411764705882355,0.5019607843137255,0.4980392156862745,0.49411764705882355,0.49411764705882355,0.49019607843137253,0.49411764705882355,0.4980392156862745
230,18.19412910938263,0,0.3450597316204911,0.4630057413342911,0.5049831714851033,0.07151798980957941,0.19990199572564119,0.30205026986971967,0.3566097657535683,0.49411764705882355,0.49019607843137253,0.4980392156862745,0.5019607843137255,0.5098039215686274,0.4980392156862745,0.5098039215686274,0.5019607843137255
231,18.196429014205933,0,0.3473698109826192,0.45713154184498134,0.5063032129728167,0.07132188287534348,0.2004283406793935,0.2944153726950601,0.35832546864096887,0.5058823529411764,0.4980392156862745,0.4980392156862745,0.4980392156862745,0.48627450980392156,0.49019607843137253,0.4980392156862745,0.4980392156862745
232,18.22459208965301,0,0.3494158806954787,0.4493432767915833,0.5084812895378994,0.07114728723191749,0.2010713181512532,0.28429269930613266,0.36115638894648544,0.4980392156862745,0.5294117647058824,0.4980392156862745,0.4980392156862745,0.5254901960784314,0.49411764705882355,0.5019607843137255,0.4980392156862745
233,18.253793001174927,0,0.34644577788604203,0.4493432767915833,0.5111873772911637,0.07109953511788501,0.2015747217104126,0.28429269930613266,0.36467358337942524,0.4980392156862745,0.48627450980392156,0.49411764705882355,0.4980392156862745,0.47843137254901963,0.4980392156862745,0.4980392156862745,0.5058823529411764
234,18.255648016929623,0,0.34373968742932587,0.4499372954610543,0.514223482174986,0.07115762473886991,0.20199340831082854,0.28506476560546296,0.3686197123186364,0.49019607843137253,0.5019607843137255,0.5294117647058824,0.5647058823529412,0.5137254901960784,0.49411764705882355,0.4980392156862745,0.49411764705882355
235,18.284383058547974,0,0.34545574677025703,0.44775922295114945,0.5125074241857809,0.07127092620443115,0.20262553877930206,0.28223385057059913,0.36638929329436287,0.5019607843137255,0.5176470588235295,0.5019607843137255,0.5137254901960784,0.5058823529411764,0.5098039215686274,0.4980392156862745,0.5019607843137255
236,18.314711093902584,0,0.3522539766526921,0.44630717325948693,0.5143554849720314,0.07140273644561164,0.20330139633998143,0.28034657212380565,0.36879128085049223,0.5019607843137255,0.48627450980392156,0.48627450980392156,0.47058823529411764,0.49019607843137253,0.5019607843137255,0.4980392156862745,0.4980392156862745
237,18.31702601909637,0,0.3517919621319925,0.44109299586575973,0.5134974580050177,0.0715829260085034,0.20409466471849286,0.2735695281497307,0.36767607397368185,0.5019607843137255,0.48627450980392156,0.49019607843137253,0.47843137254901963,0.4470588235294118,0.5019607843137255,0.5019607843137255,0.4980392156862745
238,18.344409108161926,0,0.3475018137796646,0.4418850234618396,0.5120454083133552,0.07183418329636675,0.2047491842171498,0.2745989533959396,0.36578879552688837,0.5098039215686274,0.5019607843137255,0.49411764705882355,0.47843137254901963,0.48627450980392156,0.4980392156862745,0.4980392156862745,0.4980392156862745
239,18.374587059021,0,0.3471058013333506,0.44360108009931887,0.513431458634084,0.07217473774022448,0.20532796584111027,0.2768293706633289,0.3675902923430803,0.48627450980392156,0.4470588235294118,0.4980392156862745,0.4980392156862745,0.4588235294117647,0.49411764705882355,0.4980392156862745,0.4980392156862745
240,18.377196073532104,0,0.3488218606742818,0.44445911112151043,0.5159395401641912,0.07258422353780059,0.2059178801378367,0.27794458281079204,0.37085013134291,0.5019607843137255,0.5254901960784314,0.4980392156862745,0.4980392156862745,0.5176470588235295,0.5019607843137255,0.4980392156862745,0.5098039215686274
241,18.403931021690372,0,0.3488878627486674,0.44267705105791955,0.5163355539622312,0.07305789534472407,0.2065828256904125,0.27562837864214845,0.3713648439660144,0.4980392156862745,0.4588235294117647,0.5019607843137255,0.5019607843137255,0.5058823529411764,0.4980392156862745,0.49411764705882355,0.4980392156862745
242,18.434255003929135,0,0.3465777847382652,0.44333707450522813,0.5181836133967558,0.07358195986271426,0.20720461689504935,0.27648623359961727,0.37376682976525955,0.49019607843137253,0.5098039215686274,0.49019607843137253,0.5019607843137255,0.4980392156862745,0.5098039215686274,0.4980392156862745,0.5019607843137255
243,18.436179041862488,0,0.3472378081855738,0.4455811490895186,0.5171275775031332,0.07415069667663911,0.20779438185661414,0.2794029337788511,0.37239426394157055,0.5019607843137255,0.5254901960784314,0.49411764705882355,0.48627450980392156,0.5098039215686274,0.5058823529411764,0.4980392156862745,0.49411764705882355
244,18.464123010635376,0,0.3483598448018561,0.4476932208767638,0.5166655656858854,0.07471628164021168,0.20841609294732902,0.2821480654262291,0.37179377144474884,0.5019607843137255,0.4823529411764706,0.5019607843137255,0.5019607843137255,0.47843137254901963,0.49411764705882355,0.49411764705882355,0.4980392156862745
245,18.49426710605621,0,0.34849184895062746,0.44709920085556687,0.5175895974307366,0.07529957248329934,0.20899539144663715,0.28137599737001456,0.37299476697969774,0.49411764705882355,0.48627450980392156,0.4980392156862745,0.5019607843137255,0.5019607843137255,0.5058823529411764,0.4980392156862745,0.49411764705882355
246,18.496586084365845,0,0.3482278393013588,0.44709920085556687,0.515411520865654,0.07591517067093971,0.20944533336931434,0.28137599737001456,0.3701638466741813,0.49019607843137253,0.5098039215686274,0.5019607843137255,0.49411764705882355,0.5019607843137255,0.48627450980392156,0.4980392156862745,0.4980392156862745
247,18.52406108379364,0,0.3496138855669097,0.4490792684940406,0.5146194959730259,0.07657041470866309,0.20970275029337332,0.2839495587286525,0.36913442494174087,0.4980392156862745,0.5019607843137255,0.5019607843137255,0.5019607843137255,0.5058823529411764,0.48627450980392156,0.4980392156862745,0.4980392156862745
248,18.554075002670288,0,0.3492838751949814,0.45270939069560806,0.510527356547307,0.07722749117666375,0.20990665867214056,0.28866775221030977,0.36381573193572486,0.5058823529411764,0.5254901960784314,0.49411764705882355,0.49411764705882355,0.5019607843137255,0.5098039215686274,0.5019607843137255,0.5019607843137255
249,18.556223034858704,0,0.35040591586644154,0.45607550595135876,0.5092073150595936,0.07790698900151806,0.21005637560470639,0.2930428068713711,0.3621000290483243,0.4980392156862745,0.49411764705882355,0.5019607843137255,0.49411764705882355,0.4980392156862745,0.5019607843137255,0.5019607843137255,0.4980392156862745
250,18.584419012069702,0,0.3488218606742818,0.45600950522869904,0.5077552640162052,0.07863979069464849,0.2102603217564851,0.2929570234838853,0.3602127488446466,0.5019607843137255,0.5058823529411764,0.4980392156862745,0.4980392156862745,0.5137254901960784,0.5019607843137255,0.5019607843137255,0.5019607843137255
251,18.61452710628509,0,0.3488878627486674,0.45647151974939865,0.5075572550895963,0.07939489251961904,0.21053876226028503,0.29355751949447556,0.359955389897768,0.5098039215686274,0.5333333333333333,0.4980392156862745,0.4980392156862745,0.5019607843137255,0.5058823529411764,0.5019607843137255,0.4980392156862745
252,18.6166570186615,0,0.3443337060987969,0.4538974334414539,0.5075572550895963,0.08015013138156143,0.21086070602923673,0.2902118918365073,0.359955389897768,0.5019607843137255,0.5215686274509804,0.4980392156862745,0.4980392156862745,0.5294117647058824,0.5019607843137255,0.49411764705882355,0.4980392156862745
253,18.644047021865845,0,0.339053526630684,0.4525773865468367,0.5039931349624145,0.08081528776024771,0.21138613951143792,0.28849618192156967,0.3553229815604808,0.5019607843137255,0.4980392156862745,0.49411764705882355,0.5058823529411764,0.5019607843137255,0.5058823529411764,0.5019607843137255,0.5019607843137255
254,18.67419302463532,0,0.3430136646110835,0.45224737617490834,0.503729125313146,0.081421096588823,0.21189035949471025,0.28806725619971957,0.3549798392261164,0.4980392156862745,0.5098039215686274,0.4980392156862745,0.49411764705882355,0.4980392156862745,0.49019607843137253,0.4980392156862745,0.5019607843137255
255,18.676708102226254,0,0.3445977170997915,0.4516533548019855,0.5069632337166733,0.0820816674996055,0.21229762054975512,0.28729518638662077,0.35918332008466924,0.49411764705882355,0.5137254901960784,0.49411764705882355,0.5058823529411764,0.5058823529411764,0.49411764705882355,0.49019607843137253,0.4980392156862745
256,18.703965067863464,0,0.34030757145091545,0.4500033002388919,0.510527356547307,0.08278681759145716,0.21270497700361496,0.2851505542636014,0.36381573193572486,0.5058823529411764,0.47843137254901963,0.5019607843137255,0.5019607843137255,0.47843137254901963,0.49411764705882355,0.5019607843137255,0.49411764705882355
257,18.73400104045868,0,0.3362154320251965,0.44914527056842635,0.5144874945277066,0.0834005780781675,0.21310182166760433,0.28403534387302254,0.3689628581667693,0.49411764705882355,0.45098039215686275,0.4980392156862745,0.4980392156862745,0.47843137254901963,0.48627450980392156,0.5019607843137255,0.5019607843137255
258,18.736276030540463,0,0.3348953878340313,0.4509933313546769,0.5189756436962876,0.08388606844546982,0.2134128868092533,0.28643733142915195,0.3747962585252369,0.4980392156862745,0.49019607843137253,0.49411764705882355,0.5019607843137255,0.47843137254901963,0.5058823529411764,0.4980392156862745,0.5019607843137255
259,18.764109015464786,0,0.33304732434432877,0.45053131683397724,0.5174575919302393,0.08423885783127469,0.21380958055688523,0.2858368354185617,0.3728231949340735,0.5058823529411764,0.4980392156862745,0.4980392156862745,0.49019607843137253,0.5137254901960784,0.5058823529411764,0.4980392156862745,0.4980392156862745
260,18.794130086898804,0,0.3381294975892846,0.44723120500433816,0.5175235926528992,0.08447204907835082,0.2141418941594597,0.28154756765875466,0.3729089783215593,0.49411764705882355,0.49019607843137253,0.4980392156862745,0.5019607843137255,0.4823529411764706,0.5058823529411764,0.4980392156862745,0.4980392156862745
261,18.796386003494266,0,0.3424856453125463,0.44287505728107657,0.5174575919302393,0.08462600484555706,0.21437790731402512,0.2758857340752585,0.3728231949340735,0.4980392156862745,0.5058823529411764,0.49411764705882355,0.4980392156862745,0.5137254901960784,0.49019607843137253,0.4980392156862745,0.49411764705882355
262,18.824685096740726,0,0.34453171502540575,0.44102699379137406,0.5170615781321994,0.0847182588377515,0.21437778169680094,0.27348374300536066,0.372308482310969,0.5058823529411764,0.5098039215686274,0.4980392156862745,0.5058823529411764,0.5019607843137255,0.4980392156862745,0.49411764705882355,0.5019607843137255
263,18.854400038719174,0,0.34644577788604203,0.4425450442056963,0.5169955760578138,0.08476844599336046,0.21419538900105425,0.2754568048396399,0.372222697166599,0.4980392156862745,0.5019607843137255,0.4980392156862745,0.49019607843137253,0.5019607843137255,0.5019607843137255,0.5058823529411764,0.4980392156862745
264,18.856999039649967,0,0.34571975506779967,0.44399709524908476,0.5174575919302393,0.08474985815794973,0.21397029857158634,0.2773440850433176,0.3728231949340735,0.5058823529411764,0.4980392156862745,0.5019607843137255,0.5019607843137255,0.49411764705882355,0.5098039215686274,0.5019607843137255,0.5019607843137255
265,18.884371042251587,0,0.34591776129095664,0.44366708487715645,0.5183816236750907,0.08466929447358355,0.2137560210619501,0.27691515932146743,0.3740241904690224,0.5019607843137255,0.5137254901960784,0.4980392156862745,0.49411764705882355,0.4980392156862745,0.4980392156862745,0.4980392156862745,0.5019607843137255
266,18.914939999580387,0,0.3489538648230531,0.44030096962140575,0.5169955760578138,0.08451719573303414,0.21363800499749241,0.27254010466040607,0.372222697166599,0.49411764705882355,0.5019607843137255,0.4980392156862745,0.5019607843137255,0.5058823529411764,0.5019607843137255,0.5019607843137255,0.5019607843137255
267,18.91682910919189,0,0.3556860953345544,0.437924888184892,0.5154775256434915,0.08430136777304344,0.2135092852914037,0.2694518306786637,0.37024963533231975,0.49411764705882355,0.49411764705882355,0.4980392156862745,0.5058823529411764,0.49411764705882355,0.5019607843137255,0.49411764705882355,0.5019607843137255
268,18.94450008869171,0,0.3600422417060901,0.43561481017448983,0.5144874945277066,0.08406814138828222,0.2133807115823965,0.2664493435981756,0.3689628581667693,0.5019607843137255,0.4980392156862745,0.4980392156862745,0.5019607843137255,0.5058823529411764,0.5098039215686274,0.4980392156862745,0.5019607843137255
269,18.974321007728573,0,0.36690647501463686,0.43442677013209596,0.5134974580050177,0.08385504889707551,0.21327353865617965,0.2649052074857465,0.36767607397368185,0.4980392156862745,0.5137254901960784,0.4980392156862745,0.5058823529411764,0.49411764705882355,0.5019607843137255,0.49019607843137253,0.49411764705882355
270,18.976672053337094,0,0.37185664411082137,0.4403669716957914,0.5169955760578138,0.0837141467798789,0.21302686578208951,0.27262588980477614,0.372222697166599,0.4980392156862745,0.5215686274509804,0.5019607843137255,0.4980392156862745,0.5058823529411764,0.5058823529411764,0.5019607843137255,0.4980392156862745
271,19.00432801246643,0,0.37192264618520704,0.44287505728107657,0.5221437513771553,0.08367869285562668,0.21286589583018634,0.2758857340752585,0.37891395599630395,0.4980392156862745,0.5058823529411764,0.49411764705882355,0.5019607843137255,0.49411764705882355,0.4823529411764706,0.5019607843137255,0.49411764705882355
272,19.034478068351746,0,0.3735727007483006,0.44723120500433816,0.533298130334578,0.08369871606547317,0.2127049952752112,0.28154756765875466,0.3934116822894086,0.5019607843137255,0.5019607843137255,0.5019607843137255,0.4980392156862745,0.5058823529411764,0.5098039215686274,0.4980392156862745,0.4980392156862745
273,19.037171006202694,0,0.3691505509506533,0.4498052926640089,0.5403603671628299,0.0838012706700507,0.21259802491774885,0.2848931970736071,0.40259071206272873,0.49019607843137253,0.5058823529411764,0.4980392156862745,0.5058823529411764,0.5098039215686274,0.5019607843137255,0.4980392156862745,0.5019607843137255
274,19.064120054244995,0,0.3725826682807897,0.4445911152702817,0.5379842897814939,0.08395854694849762,0.2126729314348161,0.27811615309953214,0.39950244335163904,0.5019607843137255,0.49411764705882355,0.4980392156862745,0.49411764705882355,0.49411764705882355,0.49019607843137253,0.4980392156862745,0.5019607843137255
275,19.094210028648373,0,0.3792488953661794,0.438122895759775,0.5325721061646097,0.08419577200182168,0.21275876752882952,0.269709187868658,0.39246804394445395,0.5019607843137255,0.49411764705882355,0.4980392156862745,0.5019607843137255,0.47058823529411764,0.49411764705882355,0.49411764705882355,0.5058823529411764
276,19.12527811527252,0,0.3793808995149507,0.43323873008970204,0.5263018901738081,0.0845403743070014,0.2127909965163445,0.26336107137331743,0.3843184306329214,0.5019607843137255,0.4745098039215686,0.5058823529411764,0.4980392156862745,0.4666666666666667,0.5019607843137255,0.4980392156862745,0.4980392156862745
277,19.12715709209442,0,0.38056893955734467,0.4316546748975422,0.5215497313559584,0.08495392729162625,0.21280152728056492,0.26130222088089966,0.3781418879400894,0.4980392156862745,0.48627450980392156,0.4980392156862745,0.4980392156862745,0.4745098039215686,0.4980392156862745,0.5019607843137255,0.4980392156862745
278,19.15416204929352,0,0.3770708201528226,0.4296086065364087,0.5200316795899101,0.08539225234423702,0.21290870213935445,0.25864287613477593,0.3761688243489259,0.4980392156862745,0.5058823529411764,0.5019607843137255,0.49411764705882355,0.5058823529411764,0.4823529411764706,0.4980392156862745,0.49411764705882355
279,19.156261086463925,0,0.3709986144403558,0.4319186845468108,0.5221437513771553,0.08589951050745039,0.21293028159727345,0.2616453632152641,0.37891395599630395,0.5019607843137255,0.5019607843137255,0.4980392156862745,0.4980392156862745,0.5294117647058824,0.5058823529411764,0.49019607843137253,0.4980392156862745
280,19.18400502204895,0,0.36433238735496604,0.43488878735624753,0.520625699611107,0.08640242565278704,0.21305891082382308,0.26550570701010523,0.3769408924051405,0.5019607843137255,0.49411764705882355,0.49411764705882355,0.5019607843137255,0.49019607843137253,0.4980392156862745,0.5058823529411764,0.49411764705882355
281,19.214166045188907,0,0.3607022638016727,0.43403075633405597,0.516797567131205,0.08685149580949725,0.21340198885622375,0.2643904948626421,0.3719653382197204,0.49411764705882355,0.4980392156862745,0.4980392156862745,0.5019607843137255,0.5137254901960784,0.5019607843137255,0.5058823529411764,0.4980392156862745
282,19.216305017471317,0,0.35575209605721414,0.43099465415368554,0.5159395401641912,0.08722764472834758,0.21375587119972322,0.2604443694371994,0.37085013134291,0.4980392156862745,0.5176470588235295,0.49411764705882355,0.5019607843137255,0.48627450980392156,0.49411764705882355,0.5098039215686274,0.5058823529411764
283,19.244770050048828,0,0.35601610570648273,0.4336347425360161,0.5143554849720314,0.08754878384431082,0.21392741671639529,0.2638757822395376,0.36879128085049223,0.5019607843137255,0.5098039215686274,0.49019607843137253,0.48627450980392156,0.5176470588235295,0.5372549019607843,0.5254901960784314,0.4980392156862745
284,19.274026036262512,0,0.36868853642995364,0.437330869515421,0.5109233716970728,0.08787689076322672,0.21393835542913955,0.2686797643793334,0.3643304463157136,0.5137254901960784,0.5019607843137255,0.5176470588235295,0.5215686274509804,0.5019607843137255,0.48627450980392156,0.5843137254901961,0.5137254901960784
285,19.276222109794613,0,0.34849184895062746,0.43805689503711526,0.5112533820690013,0.08804251224188167,0.2143885104618768,0.2696234044811722,0.36475937203756376,0.48627450980392156,0.5019607843137255,0.5019607843137255,0.49019607843137253,0.5098039215686274,0.47058823529411764,0.5333333333333333,0.4980392156862745
286,19.304428100585934,0,0.34703979925896494,0.43825489990854627,0.5134974580050177,0.0881856280332387,0.21474246343212333,0.2698807581573981,0.36767607397368185,0.5019607843137255,0.4980392156862745,0.48627450980392156,0.5058823529411764,0.48627450980392156,0.5176470588235295,0.5490196078431373,0.49019607843137253
287,19.334393024444577,0,0.34512573639832866,0.44043297241845114,0.515411520865654,0.08828880984549504,0.21478524286096234,0.2727116731922619,0.3701638466741813,0.49019607843137253,0.49019607843137253,0.4980392156862745,0.49411764705882355,0.5098039215686274,0.49019607843137253,0.8941176470588236,0.49019607843137253
288,19.33678901195526,0,0.3426176494613176,0.44815523674918945,0.5156755318666485,0.08842744558200359,0.21440992336716846,0.28274856319370356,0.37050699076542987,0.5058823529411764,0.5411764705882353,0.49019607843137253,0.4980392156862745,0.49411764705882355,0.5098039215686274,0.0,0.5019607843137255
289,19.36451208591461,0,0.34202362944012066,0.45673552804694134,0.5163355539622312,0.08862686072929038,0.2136702782584906,0.2939006600719557,0.3713648439660144,0.5058823529411764,0.5215686274509804,0.4823529411764706,0.4745098039215686,0.4980392156862745,0.5176470588235295,0.1450980392156863,0.4980392156862745
290,19.394703030586246,0,0.33832750381244164,0.46478780274960796,0.522011747228384,0.08887051422210103,0.21290887132730812,0.3043664757952475,0.3787423857075639,0.5098039215686274,0.5176470588235295,0.4980392156862745,0.5058823529411764,0.5176470588235295,0.5725490196078431,0.3176470588235294,0.5058823529411764
291,19.397855043411255,0,0.33694145484343885,0.4692099525472553,0.5259058790792199,0.08909337498976179,0.21241552856583118,0.31011409452311367,0.38380372152358555,0.4980392156862745,0.49411764705882355,0.5058823529411764,0.5058823529411764,0.5098039215686274,0.49411764705882355,0.6235294117647059,0.5019607843137255
292,19.424753069877625,0,0.3404395755996868,0.46551382827130217,0.5293379964093563,0.08914826005386678,0.2122654702706547,0.3053101158970864,0.38826456132901693,0.49411764705882355,0.49411764705882355,0.5098039215686274,0.5019607843137255,0.5137254901960784,0.4666666666666667,0.7215686274509804,0.49411764705882355
293,19.454243063926693,0,0.3481618372269732,0.45468945833408186,0.5309220488980643,0.08909666914773862,0.21226556514240444,0.2912413135689477,0.3903234083076662,0.49019607843137253,0.47058823529411764,0.49019607843137253,0.5215686274509804,0.47843137254901963,0.4823529411764706,0.6274509803921569,0.49411764705882355
294,19.45668601989746,0,0.35555408848233117,0.44333707450522813,0.5348161821006262,0.08898530201174142,0.21212597418792684,0.27648623359961727,0.395384745880572,0.5058823529411764,0.4588235294117647,0.5098039215686274,0.5058823529411764,0.48627450980392156,0.48627450980392156,0.5411764705882353,0.5137254901960784
295,19.484844088554386,0,0.35951422375927883,0.4429410593554622,0.5437264891772102,0.08887969394232986,0.21152558200919605,0.2759715192196286,0.4069657755082113,0.49019607843137253,0.49019607843137253,0.5058823529411764,0.5098039215686274,0.4980392156862745,0.48627450980392156,0.5254901960784314,0.5058823529411764
296,19.51416802406311,0,0.35284799802561506,0.4593096157066121,0.5525707914759568,0.08886009589847288,0.2103783703233015,0.29724628948680815,0.418461016477712,0.48627450980392156,0.4549019607843137,0.5058823529411764,0.5450980392156862,0.47843137254901963,0.5098039215686274,0.4980392156862745,0.48627450980392156
297,19.516643047332767,0,0.3469077951101936,0.46465579724911066,0.5493366790172515,0.08880625442361495,0.20928465716845848,0.3041949037496232,0.4142575303485065,0.4980392156862745,0.5333333333333333,0.48627450980392156,0.4745098039215686,0.49411764705882355,0.49019607843137253,0.49019607843137253,0.4980392156862745
298,19.544925093650814,0,0.35522407811040285,0.468285920802404,0.5556728943789869,0.08875041361447557,0.2081586173433359,0.3089130989881647,0.42249292529064053,0.5058823529411764,0.5098039215686274,0.5019607843137255,0.4745098039215686,0.5176470588235295,0.49019607843137253,0.5058823529411764,0.5137254901960784
299,19.574160099029537,0,0.3523199787270778,0.46571183314273323,0.5653752182378433,0.08874086846232185,0.20722584181372578,0.30556746957331227,0.43510336610941464,0.5058823529411764,0.5333333333333333,0.5176470588235295,0.4549019607843137,0.4666666666666667,0.5019607843137255,0.49019607843137253,0.5058823529411764
300,19.57685101032257,0,0.3469737971845792,0.45897960398295784,0.5805557358983253,0.08863425369823258,0.20597135336975497,0.29681736200807374,0.45483400202104945,0.5098039215686274,0.6235294117647059,0.5019607843137255,0.47843137254901963,0.5372549019607843,0.5058823529411764,0.5058823529411764,0.4980392156862745
301,19.605114102363586,0,0.35165995663149513,0.45647151974939865,0.5736915093484083,0.08852201866141372,0.2039764000549132,0.29355751949447556,0.44591233295149213,0.49411764705882355,0.396078431372549,0.4823529411764706,0.4627450980392157,0.5058823529411764,0.5019607843137255,0.5058823529411764,0.4823529411764706
302,19.634418010711673,0,0.3645963970042347,0.45713154184498134,0.5641871863058051,0.08836862509716888,0.20105001592966956,0.2944153726950601,0.4335592405382911,0.48627450980392156,0.4980392156862745,0.5098039215686274,0.5137254901960784,0.4980392156862745,0.49019607843137253,0.48627450980392156,0.48627450980392156
303,19.6373530626297,0,0.372318658631521,0.46227971581259686,0.5554748800454743,0.08847123943581106,0.19750017155974744,0.3011066297678809,0.42223555931622486,0.4980392156862745,0.5098039215686274,0.4823529411764706,0.4980392156862745,0.49411764705882355,0.5098039215686274,0.5098039215686274,0.5019607843137255
304,19.664638042449948,0,0.3806349416317303,0.46729588968661895,0.5469605881186561,0.0888920887607441,0.19382277387919308,0.30762632182261423,0.41116924406857436,0.47843137254901963,0.5450980392156862,0.5372549019607843,0.5607843137254902,0.4666666666666667,0.49411764705882355,0.5137254901960784,0.4823529411764706
305,19.694080114364624,0,0.38941323996367483,0.4694079614738641,0.534684172544951,0.08945819200517172,0.1902624128001246,0.31037145346999223,0.395213168564295,0.5019607843137255,0.4627450980392157,0.4745098039215686,0.4666666666666667,0.5294117647058824,0.5254901960784314,0.49019607843137253,0.5058823529411764
306,19.696723103523254,0,0.3980595338765028,0.45732954671641235,0.5249818486860947,0.09016964228395938,0.18720735447209444,0.294672726371286,0.3826027277455208,0.5254901960784314,0.4823529411764706,0.47843137254901963,0.49019607843137253,0.4196078431372549,0.49411764705882355,0.48627450980392156,0.5019607843137255
307,19.72477900981903,0,0.4101379445787767,0.44366708487715645,0.5191736499194446,0.0911710381987748,0.18426767248992984,0.27691515932146743,0.375053613958347,0.5019607843137255,0.4745098039215686,0.4980392156862745,0.4745098039215686,0.49411764705882355,0.48627450980392156,0.49411764705882355,0.5176470588235295
308,19.7541720867157,0,0.42175433940862506,0.4360768260469155,0.5144874945277066,0.0925168923542611,0.18142769895985073,0.2670498413656501,0.3689628581667693,0.5294117647058824,0.47843137254901963,0.4588235294117647,0.4980392156862745,0.4745098039215686,0.5058823529411764,0.5176470588235295,0.5254901960784314
309,19.756658077239987,0,0.43469077842963866,0.43779288403612066,0.5185796285465217,0.09427266274396578,0.1786497065493799,0.26928026038992364,0.3742815441452483,0.4980392156862745,0.4235294117647059,0.5019607843137255,0.4980392156862745,0.49411764705882355,0.4745098039215686,0.48627450980392156,0.4980392156862745
310,19.78471302986145,0,0.44393109317469914,0.4404989771962887,0.5231337824929404,0.09646749256389955,0.1762788386840473,0.2727974618504004,0.38020073316185443,0.41568627450980394,0.5764705882352941,0.5294117647058824,0.5764705882352941,0.596078431372549,0.48627450980392156,0.4745098039215686,0.396078431372549
311,19.814999103546146,1,0.449607285089126,0.44267705105791955,0.5216817355047296,0.09889469843661547,0.17438226456266426,0.27562837864214845,0.3783134582288295,0.5058823529411764,0.4627450980392157,0.44313725490196076,0.4588235294117647,0.43137254901960786,0.4823529411764706,0.5019607843137255,0.5294117647058824
312,19.817724108695984,1,0.46095967162143164,0.4505973189083629,0.5126394283345521,0.10149854145226091,0.1728160742821907,0.2859226205629318,0.3665608635831029,0.6235294117647059,0.49019607843137253,0.4392156862745098,0.4588235294117647,0.4196078431372549,0.4745098039215686,0.4980392156862745,0.5372549019607843
313,19.84443604946136,1,0.46293973925990545,0.44300706142984786,0.4905946787172494,0.1045235219218571,0.1714118529180073,0.2760573043639986,0.3379085515743739,0.5529411764705883,0.47058823529411764,0.5098039215686274,0.49019607843137253,0.42745098039215684,0.49411764705882355,0.5019607843137255,0.5372549019607843
314,19.87370204925537,1,0.46643785460924964,0.42881657894032876,0.46491980689837925,0.10816939582823619,0.16985712806417744,0.2576134508885671,0.3045380460839876,0.3333333333333333,0.5568627450980392,0.6666666666666666,0.5294117647058824,0.47058823529411764,0.49019607843137253,0.49411764705882355,0.4588235294117647
315,19.875673055648804,1,0.47501815131390535,0.40109563713825397,0.4361428281213011,0.112405296471934,0.1682060275676925,0.22158359854379597,0.2671356265100201,0.4196078431372549,0.01568627450980392,0.5098039215686274,0.5294117647058824,0.3215686274509804,0.5058823529411764,0.5568627450980392,0.4980392156862745
316,19.90439808368683,1,0.4723120581537373,0.3848590852062206,0.4179922117065604,0.1172638017576784,0.16648026651793588,0.2004803989167333,0.2435446520741969,0.5019607843137255,0.8588235294117647,0.4666666666666667,0.42745098039215684,0.6901960784313725,0.5411764705882353,0.4666666666666667,0.47843137254901963
317,19.93374800682068,1,0.4753481616858337,0.37363870417441225,0.4005676191238564,0.12197264334444985,0.16544108177969424,0.18589688747925867,0.22089731554410724,0.5098039215686274,0.9882352941176471,0.49019607843137253,0.5176470588235295,0.4980392156862745,0.5019607843137255,0.5333333333333333,0.48627450980392156
318,19.935957074165344,1,0.4807603453027179,0.3671044812377939,0.39205332969773127,0.12543146881180828,0.16538491419008358,0.1774041353471303,0.20983100354669254,0.5019607843137255,0.5647058823529412,0.4666666666666667,0.4980392156862745,0.5019607843137255,0.49019607843137253,0.396078431372549,0.47058823529411764
319,19.96465003490448,1,0.47759223762185016,0.3708006082171988,0.39106329614883956,0.12772926786100364,0.1656869577310866,0.18220811748692609,0.20854422321875044,0.5215686274509804,0.4235294117647059,0.4588235294117647,0.49019607843137253,0.5529411764705883,0.5137254901960784,0.49411764705882355,0.5843137254901961
320,19.99366700649261,1,0.4698039725684522,0.34255164738693195,0.38446307140818065,0.12853833414272992,0.16706682165196807,0.14549198082480305,0.19996568629362885,0.5333333333333333,0.39215686274509803,0.4980392156862745,0.4666666666666667,0.48627450980392156,0.4980392156862745,0.4745098039215686,0.4470588235294118
321,19.99603402614593,1,0.4695399629191836,0.3011682440159464,0.3944954126679403,0.12828368958202424,0.16868751750954772,0.09170456178159027,0.21300506197005126,0.5176470588235295,0.43529411764705883,0.5411764705882353,0.5411764705882353,0.4627450980392157,0.5137254901960784,0.5294117647058824,0.49411764705882355
322,20.024805068969727,1,0.4768002127292222,0.2762193923118667,0.37304468415321523,0.12752109815947751,0.17010226436729872,0.05927768936550583,0.18512481942304415,0.5098039215686274,0.5725490196078431,0.5019607843137255,0.5058823529411764,0.5607843137254902,0.4588235294117647,0.5019607843137255,0.5176470588235295
323,20.05425608158112,1,0.4995709824613153,0.26249093110167704,0.34103359562088376,0.12538826702799452,0.17091775381785884,0.04143434068508577,0.14351891723363958,0.5254901960784314,0.4980392156862745,0.47843137254901963,0.5019607843137255,0.5254901960784314,0.49411764705882355,0.3803921568627451,0.5529411764705883
324,20.056979060173035,1,0.5156095297922628,0.2585307931212775,0.33205729052509186,0.12020904252162366,0.17161471331531686,0.03628721445404136,0.13185210773228304,0.596078431372549,0.47843137254901963,0.5647058823529412,0.5333333333333333,0.5372549019607843,0.6352941176470588,0.7058823529411765,0.596078431372549
325,20.084661006927487,1,0.5010890382825414,0.2564187213340324,0.3438056895037115,0.11279929533480822,0.1732552373685908,0.03354208280666335,0.14712190208160217,0.788235294117647,0.592156862745098,0.4745098039215686,0.47843137254901963,0.4980392156862745,0.6078431372549019,0.8901960784313725,0.6392156862745098
326,20.11469900608063,1,0.46538182141907897,0.26202891117407356,0.4094779219425037,0.10429851248475333,0.17608701854739195,0.04083383764695851,0.23247833963756112,0.22745098039215686,0.29411764705882354,0.5254901960784314,0.5294117647058824,0.6392156862745098,0.4627450980392157,0.7254901960784313,0.5882352941176471
327,20.11641502380371,1,0.4721140492271284,0.2630189422898586,0.48036433150467794,0.09580757170029118,0.17884321856557217,0.04212061481250902,0.3246118208162182,0.6235294117647059,0.6549019607843137,0.5098039215686274,0.42745098039215684,0.5686274509803921,0.5411764705882353,0.4392156862745098,0.8470588235294118
328,20.14438807964325,1,0.49884495693962105,0.23166787585310972,0.5674872900250885,0.08777189936018845,0.17974259572550766,0.001372565823689005,0.43784849775679263,0.5058823529411764,0.0,0.4627450980392157,0.47058823529411764,0.5019607843137255,0.34901960784313724,0.27058823529411763,0.40784313725490196
329,20.173705101013184,1,0.4627417330367484,0.26321695662337125,0.4777242390671696,0.08199293606034096,0.17535713679589218,0.0423779807869246,0.32118040274322723,0.8980392156862745,1.0,0.3411764705882353,0.3803921568627451,0.4980392156862745,0.43137254901960786,0.4235294117647059,0.25098039215686274
330,20.175689101219174,1,0.3398455569302158,0.5838558531348681,0.43086264865318824,0.08028919755471228,0.1619540179117161,0.45912327680839343,0.26027279739157505,0.0,0.7372549019607844,0.5725490196078431,0.6,0.6784313725490196,0.1843137254901961,0.2980392156862745,0.1843137254901961
331,20.20440804958343,1,0.029965020171198006,1.0,0.5232657920486155,0.08523538014916862,0.15098609696672882,1.0,0.3803723104781315,0.3137254901960784,0.0,0.4627450980392157,0.30980392156862746,0.44313725490196076,0.5450980392156862,0.8235294117647058,0.4235294117647059
332,20.23631310462952,1,0.124348229853373,0.7526235817809673,0.6107187568857764,0.08284667463800191,0.15881462913947847,0.6784764426242188,0.4940379078699033,1.0,1.0,0.47843137254901963,0.7294117647058823,0.4745098039215686,0.9882352941176471,0.47843137254901963,0.8745098039215686
333,20.236788034439087,1,0.3142366844822794,0.6390337251973327,0.5666952597255567,0.07778171085599513,0.16584700285911833,0.5308398367039334,0.4368190689968153,0.1411764705882353,0.0,0.5686274509803921,0.4392156862745098,0.5529411764705883,0.30980392156862746,0.01568627450980392,0.0
334,20.26374900341034,1,0.5932281666217962,0.4816843770475691,0.5153455201429942,0.07330386968163465,0.1724106205339783,0.3263275289742716,0.3700780632866955,0.8941176470588236,0.8431372549019608,0.5058823529411764,0.5490196078431373,0.39215686274509803,0.3411764705882353,0.4549019607843137,0.9019607843137255
335,20.293552041053765,1,0.5983763365342339,0.39066728262114475,0.5148835042705686,0.07337641846003262,0.17661306307393676,0.20802951094702282,0.369477565519221,0.1803921568627451,0.6431372549019608,0.45098039215686275,0.5215686274509804,0.4823529411764706,0.29411764705882354,0.5843137254901961,0.4470588235294118
336,20.295512080192566,1,0.5122434131847863,0.37429872626999483,0.5348821868784637,0.07371802000690596,0.17572264602369833,0.18675474067984324,0.39547053453871056,0.4980392156862745,0.1411764705882353,0.5137254901960784,0.5215686274509804,0.3764705882352941,0.5215686274509804,0.5372549019607843,0.5450980392156862
337,20.324140071868893,1,0.4612236799189743,0.4437330869515421,0.5014850493771295,0.07447722942726312,0.1723979498847361,0.27700094446583745,0.35206313728999833,0.4745098039215686,0.8,0.5019607843137255,0.5058823529411764,0.43137254901960786,0.47058823529411764,0.39215686274509803,0.4627450980392157
338,20.353739023208615,1,0.4316546748975422,0.45620751010013005,0.5012870390987946,0.0754099522503456,0.17071441730491638,0.2932143771601112,0.35180577658623546,0.4588235294117647,0.615686274509804,0.5058823529411764,0.44313725490196076,0.4666666666666667,0.5411764705882353,0.39215686274509803,0.38823529411764707
339,20.35558104515076,1,0.45270939069560806,0.46551382827130217,0.503729125313146,0.0753791716382099,0.1702859659418149,0.3053101158970864,0.3549798392261164,0.39215686274509803,0.16470588235294117,0.4980392156862745,0.4980392156862745,0.49411764705882355,0.615686274509804,0.4745098039215686,0.49411764705882355
340,20.384171009063717,1,0.44650518218609586,0.4620157075150542,0.4993729775898843,0.07511485894345267,0.1710592462481649,0.30076348919040075,0.34931800564262033,0.4745098039215686,0.4823529411764706,0.5176470588235295,0.5215686274509804,0.5176470588235295,0.5333333333333333,0.4823529411764706,0.45098039215686275
341,20.414061069488522,1,0.4261764892062723,0.4409609917169884,0.5024750845480923,0.07491896283532727,0.17255946201112018,0.27339795786099064,0.35334991972620156,0.4980392156862745,0.5176470588235295,0.49019607843137253,0.49411764705882355,0.5019607843137255,0.49019607843137253,0.4823529411764706,0.5176470588235295
342,20.415760040283203,1,0.418454227578986,0.4343607680577103,0.49745891067407016,0.07482309317533745,0.17367481295243942,0.26481942234137645,0.34683022767146815,0.4470588235294118,0.4235294117647059,0.49411764705882355,0.4980392156862745,0.4588235294117647,0.49411764705882355,0.47058823529411764,0.4823529411764706
343,20.44459903240204,1,0.4179922117065604,0.4374628736641923,0.49290475672765155,0.07497042197513637,0.17428514927173813,0.2688513346680735,0.340911038654862,0.18823529411764706,0.4588235294117647,0.49411764705882355,0.4980392156862745,0.4745098039215686,0.5254901960784314,0.48627450980392156,0.4745098039215686
344,20.474266052246094,0,0.42175433940862506,0.4441951014722418,0.48907662830292714,0.07525420446119996,0.17453330214512408,0.27760144047642765,0.33593548974009463,0.7215686274509804,0.4549019607843137,0.5019607843137255,0.4980392156862745,0.5058823529411764,0.5294117647058824,0.4980392156862745,0.5137254901960784
345,20.477111101150516,0,0.4230083815254046,0.44828724089796074,0.4884166075590705,0.07557336883926137,0.17483276306627324,0.28292013348244366,0.33507763829639436,0.5294117647058824,0.48627450980392156,0.5215686274509804,0.5294117647058824,0.47058823529411764,0.4980392156862745,0.48627450980392156,0.49019607843137253
346,20.504312038421627,0,0.4224803635785933,0.44399709524908476,0.4950828332927343,0.07580864199417887,0.17565821756432384,0.2773440850433176,0.3437419589603785,0.596078431372549,0.6039215686274509,0.47058823529411764,0.4627450980392157,0.4666666666666667,0.5058823529411764,0.5019607843137255,0.5137254901960784
347,20.533695101737976,0,0.4253844629619184,0.43845290748342924,0.49679888993021354,0.0758957237191286,0.17667725259705266,0.2701381153473924,0.34597237622776783,0.44313725490196076,0.28627450980392155,0.5137254901960784,0.5176470588235295,0.47843137254901963,0.4823529411764706,0.4980392156862745,0.48627450980392156
348,20.53576803207397,0,0.4319846866211965,0.4421490317593823,0.49613886918635686,0.07605664377551896,0.1773956900045198,0.27494209397341973,0.3451145247840675,0.4980392156862745,0.615686274509804,0.5058823529411764,0.49411764705882355,0.49019607843137253,0.49411764705882355,0.49411764705882355,0.49411764705882355
349,20.564542055130005,0,0.4300706224088343,0.44709920085556687,0.4938947878434366,0.07639219109925191,0.17786532449142683,0.28137599737001456,0.3421978158204124,0.49019607843137253,0.4627450980392157,0.5019607843137255,0.5019607843137255,0.49019607843137253,0.5215686274509804,0.5058823529411764,0.5019607843137255
350,20.593920111656193,0,0.4274305313230519,0.4539634341641136,0.4907926849404064,0.07690373430316155,0.1780497674710983,0.2902976752239931,0.338165907007484,0.5019607843137255,0.5607843137254902,0.5019607843137255,0.5137254901960784,0.47058823529411764,0.5294117647058824,0.4980392156862745,0.4980392156862745
351,20.59557604789734,0,0.4229423794510189,0.445119133217093,0.498250940973602,0.0774818282826249,0.17889659446610276,0.27880243601137666,0.3478596564314455,0.5254901960784314,0.4666666666666667,0.49019607843137253,0.4823529411764706,0.47058823529411764,0.5058823529411764,0.5137254901960784,0.5176470588235295
352,20.624315023422238,0,0.4239324132702559,0.4364068377705697,0.5108573669192353,0.0779637152803216,0.18031180865506544,0.2674787688443845,0.3642446576575751,0.4980392156862745,0.47843137254901963,0.47843137254901963,0.47058823529411764,0.5254901960784314,0.4823529411764706,0.5019607843137255,0.4980392156862745
353,20.653912067413327,0,0.4331067259409307,0.43957494545143744,0.510527356547307,0.07838978606525848,0.18154417511525953,0.2715964663154515,0.36381573193572486,0.48627450980392156,0.3333333333333333,0.5176470588235295,0.5215686274509804,0.49019607843137253,0.49019607843137253,0.49411764705882355,0.4823529411764706
354,20.655627012252808,0,0.4381888978341606,0.4372648647375834,0.508151279165971,0.0788746685506088,0.1830459791015807,0.26859397572119487,0.3607274632246353,0.5137254901960784,0.6313725490196078,0.5254901960784314,0.5137254901960784,0.5058823529411764,0.49019607843137253,0.4980392156862745,0.5176470588235295
355,20.68427908420563,0,0.4287505768659431,0.42987261483395134,0.5147515001217973,0.07940196222185845,0.1848907391925353,0.2589860167122561,0.3693059952304809,0.49411764705882355,0.5843137254901961,0.48627450980392156,0.49019607843137253,0.5176470588235295,0.4745098039215686,0.49411764705882355,0.5019607843137255
356,20.71424508094788,0,0.4236684049727132,0.4208303076637738,0.5243878273131718,0.07969874213763552,0.18727037918094971,0.2472334220665295,0.38183065793242205,0.4196078431372549,0.2980392156862745,0.47843137254901963,0.49019607843137253,0.4745098039215686,0.4980392156862745,0.4980392156862745,0.4745098039215686
357,20.715577006340027,0,0.43323873008970204,0.42611048713188665,0.5269619149728425,0.07972399910567567,0.189791033727153,0.25409625118497453,0.38517628734727455,0.5176470588235295,0.6823529411764706,0.5098039215686274,0.4823529411764706,0.5058823529411764,0.5058823529411764,0.4980392156862745,0.49411764705882355
358,20.744643092155453,0,0.43805689503711526,0.4193782593238372,0.5291399874827475,0.07983022032769196,0.19240715033619915,0.24534614537662033,0.3880072023821383,0.49411764705882355,0.5490196078431373,0.5019607843137255,0.5098039215686274,0.5058823529411764,0.4980392156862745,0.4980392156862745,0.49411764705882355
359,20.775515079498287,0,0.4284865672166745,0.4046597582116439,0.5361362235883396,0.0801003588506365,0.19525971545572895,0.22621600811090214,0.3971004487679726,0.5058823529411764,0.5215686274509804,0.49411764705882355,0.49411764705882355,0.5058823529411764,0.5137254901960784,0.4980392156862745,0.5098039215686274
360,20.77739906311035,0,0.42076430558938815,0.40584779865955556,0.5404263719406674,0.08017119642377073,0.19767164170608503,0.2277601447503965,0.40267650072086725,0.4980392156862745,0.40784313725490196,0.5058823529411764,0.5098039215686274,0.5019607843137255,0.5019607843137255,0.5019607843137255,0.48627450980392156
361,20.804217100143433,0,0.41726618753659206,0.42795855062158916,0.5397003464189731,0.08006695345342481,0.1994842016224264,0.25649824225487244,0.40173286061902835,0.5098039215686274,0.47843137254901963,0.49019607843137253,0.4666666666666667,0.48627450980392156,0.49019607843137253,0.4980392156862745,0.5058823529411764
362,20.835249066352844,0,0.40888390178613415,0.4356808122488755,0.533694141429166,0.07998914807733792,0.201767778693583,0.2665351287425456,0.39392639139874447,0.49019607843137253,0.5176470588235295,0.47058823529411764,0.4627450980392157,0.49411764705882355,0.49411764705882355,0.4745098039215686,0.4823529411764706
363,20.836379051208496,0,0.40010560345418966,0.42795855062158916,0.5511847316931464,0.0799076356754744,0.20507080542215242,0.25649824225487244,0.41665950736333035,0.47058823529411764,0.5215686274509804,0.5098039215686274,0.5254901960784314,0.48627450980392156,0.5137254901960784,0.5137254901960784,0.5019607843137255
364,20.86475801467895,0,0.3935053791190486,0.42894858444082606,0.5677512956191793,0.0796366995270784,0.209209482550854,0.25778502293419137,0.43819163482050427,0.5411764705882353,0.48627450980392156,0.5058823529411764,0.5098039215686274,0.5176470588235295,0.49019607843137253,0.5019607843137255,0.5019607843137255
365,20.89378201961517,0,0.3930433633817956,0.4300706224088343,0.5703253873340278,0.079280245280719,0.21370219610180416,0.25924337390225044,0.4415372695060095,0.4980392156862745,0.43529411764705883,0.5098039215686274,0.5019607843137255,0.49411764705882355,0.4392156862745098,0.5058823529411764,0.5098039215686274
366,20.895580053329468,0,0.39205332969773127,0.41106197578293757,0.5519107572148406,0.07916821755624218,0.21858109262950864,0.23453718837309462,0.41760314746516924,0.5019607843137255,0.5372549019607843,0.5019607843137255,0.5058823529411764,0.5137254901960784,0.6470588235294118,0.4980392156862745,0.5058823529411764
367,20.92413306236267,0,0.393703385882896,0.387895188738317,0.5426704532835877,0.0792526797667687,0.22290227001041096,0.20442652609906026,0.4055932096845222,0.5372549019607843,0.45098039215686275,0.5058823529411764,0.5137254901960784,0.48627450980392156,0.4666666666666667,0.49019607843137253,0.4980392156862745
368,20.953700065612797,0,0.3830770246019394,0.38868721498267095,0.5455085505925271,0.07946765212412753,0.22551853823856824,0.20545594958838487,0.40928198143373923,0.48627450980392156,0.5215686274509804,0.4980392156862745,0.4980392156862745,0.48627450980392156,0.4627450980392157,0.5019607843137255,0.49411764705882355
369,20.95556008815765,0,0.36769850261071674,0.4065078210254834,0.5080192696102959,0.07993777678174153,0.22684822818047268,0.2286179983023579,0.36055588590835824,0.5019607843137255,0.4392156862745098,0.5058823529411764,0.5019607843137255,0.4980392156862745,0.24705882352941178,0.6470588235294118,0.5490196078431373
370,20.984416007995605,0,0.3581281774937279,0.4148241040256927,0.5048511619294282,0.08039369703015936,0.22735252739922487,0.23942695460312988,0.3564381884372912,0.43137254901960786,0.43529411764705883,0.4980392156862745,0.5019607843137255,0.49411764705882355,0.7568627450980392,0.45098039215686275,0.4666666666666667
371,21.014460086822513,0,0.34677579096142225,0.42564847125946104,0.564649192716149,0.08129096417210536,0.22796322862338317,0.2534957534175001,0.43415972600757585,0.796078431372549,0.8980392156862745,0.4980392156862745,0.5098039215686274,0.4745098039215686,0.5882352941176471,0.4823529411764706,0.49411764705882355
372,21.044088006019596,0,0.3361494299508109,0.43224869627046514,0.5774536329952951,0.0821088640678624,0.22963657127452783,0.26207429069399846,0.4508020932081209,0.30980392156862746,0.7490196078431373,0.5019607843137255,0.5019607843137255,0.5058823529411764,0.43137254901960786,0.39215686274509803,0.4980392156862745
373,21.0461540222168,0,0.3586561940888133,0.41640815786612656,0.5440564995491386,0.08179763202220926,0.23310014489727202,0.2414858033386634,0.4073947012300615,0.5764705882352941,0.0,0.49019607843137253,0.49019607843137253,0.5215686274509804,0.45098039215686275,0.5254901960784314,0.5607843137254902
374,21.074144005775448,0,0.364134382483535,0.3949574284051933,0.5360042275499239,0.08121523367632283,0.235919366110539,0.2136055595618373,0.39692888902053813,0.36470588235294116,0.3803921568627451,0.49411764705882355,0.49411764705882355,0.43529411764705883,0.5098039215686274,0.47843137254901963,0.47843137254901963
375,21.076457023620605,0,0.3600422417060901,0.3710646165147415,0.5308560441202267,0.08119969403509336,0.23708877708311746,0.18255125806440617,0.39023761964952763,0.5254901960784314,0.8156862745098039,0.5058823529411764,0.5058823529411764,0.5058823529411764,0.49019607843137253,0.5019607843137255,0.47058823529411764
376,21.10440707206726,0,0.3522539766526921,0.37931489744056507,0.5205596975367215,0.08093214867330818,0.23620943367433406,0.19327442922080815,0.37685510726077043,0.49411764705882355,0.47843137254901963,0.5058823529411764,0.4980392156862745,0.5254901960784314,0.48627450980392156,0.5098039215686274,0.48627450980392156
377,21.13418805599213,0,0.34578575714218535,0.40353772010846306,0.5169955760578138,0.08053525797895134,0.2341399441936258,0.2247576569671547,0.372222697166599,0.49019607843137253,0.4470588235294118,0.4980392156862745,0.49411764705882355,0.49411764705882355,0.5058823529411764,0.5098039215686274,0.4980392156862745
378,21.136195063591003,0,0.341363607344538,0.42512045331264975,0.5121114103877409,0.0803319443055042,0.2323170179574302,0.25280947050565555,0.3658745806712584,0.49411764705882355,0.5058823529411764,0.5019607843137255,0.5019607843137255,0.5058823529411764,0.49019607843137253,0.48627450980392156,0.5058823529411764
379,21.164355039596558,0,0.3325193063975175,0.437924888184892,0.5134974580050177,0.08019579280333125,0.23131949245862707,0.2694518306786637,0.36767607397368185,0.5137254901960784,0.4823529411764706,0.4980392156862745,0.5058823529411764,0.48627450980392156,0.5019607843137255,0.4745098039215686,0.48627450980392156
380,21.19372999668121,0,0.3255230689401994,0.43785888611050633,0.5140254746001031,0.08012159958127126,0.2314266360448769,0.2693660455342936,0.3683623551286421,0.5019607843137255,0.49411764705882355,0.4980392156862745,0.49411764705882355,0.49019607843137253,0.4980392156862745,0.5098039215686274,0.5058823529411764
381,21.1959080696106,0,0.3181968197592271,0.42729852717428063,0.5260378845797172,0.08022139060691674,0.23211361643977035,0.25564038729740357,0.3839752935692098,0.5019607843137255,0.5411764705882353,0.5019607843137255,0.49411764705882355,0.5019607843137255,0.5176470588235295,0.5058823529411764,0.5019607843137255
