,time,gesture,ax,ay,az,qw,qx,qy,qz,e0,e1,e2,e3,e4,e5,e6,e7
0,11.223473072052002,0,0.5002175933183509,0.6298955778439194,0.8977371827772288,0.8897137728358018,0.5544282965158244,0.6298955778439194,0.8977371827772288,0.4823529411764706,0.4392156862745098,0.49019607843137253,0.4823529411764706,0.5098039215686274,0.5019607843137255,0.48627450980392156,0.4980392156862745
1,11.223790049552916,0,0.5450391789177558,0.6549173345021252,0.9044821879698625,0.8889742469789994,0.5578270407834518,0.6549173345021252,0.9044821879698625,0.49019607843137253,0.48627450980392156,0.49019607843137253,0.4980392156862745,0.5019607843137255,0.5019607843137255,0.4980392156862745,0.4980392156862745
2,11.22516107559204,0,0.5709312598328286,0.6664491075113563,0.900565722129888,0.8880328041834811,0.5614133356885036,0.6664491075113563,0.900565722129888,0.5019607843137255,0.48627450980392156,0.4823529411764706,0.48627450980392156,0.5137254901960784,0.5019607843137255,0.49411764705882355,0.4980392156862745
3,11.226276040077211,0,0.5630983638012699,0.6020452729209569,0.922106217409016,0.8874874729328456,0.5626369132130135,0.6020452729209569,0.922106217409016,0.5098039215686274,0.5098039215686274,0.5058823529411764,0.49411764705882355,0.5019607843137255,0.49411764705882355,0.49411764705882355,0.5058823529411764
4,11.228125095367432,0,0.5794169046270986,0.6114012330599964,0.8892515468950563,0.8868137985650275,0.5644878934947302,0.6114012330599964,0.8892515468950563,0.5098039215686274,0.49019607843137253,0.5058823529411764,0.4980392156862745,0.4980392156862745,0.4980392156862745,0.4980392156862745,0.5098039215686274
5,11.22945499420166,0,0.6964752119363644,0.6185813847848927,0.8483464003993333,0.8856281286475544,0.5675640955829594,0.6185813847848927,0.8483464003993333,0.49411764705882355,0.5019607843137255,0.49019607843137253,0.49411764705882355,0.49411764705882355,0.5019607843137255,0.4980392156862745,0.49019607843137253
6,11.230504035949707,0,0.47845954393410106,0.6072672095500611,0.8555265654923759,0.8857187914161884,0.5663696071449356,0.6072672095500611,0.8555265654923759,0.49411764705882355,0.4980392156862745,0.49019607843137253,0.5058823529411764,0.4823529411764706,0.4980392156862745,0.4980392156862745,0.4980392156862745
7,11.23412299156189,0,0.5620104595941983,0.578981735814592,0.8611836531097918,0.8861703807684777,0.5633750443265453,0.578981735814592,0.8611836531097918,0.5058823529411764,0.5215686274509804,0.5098039215686274,0.5372549019607843,0.49019607843137253,0.4980392156862745,0.5058823529411764,0.49411764705882355
8,11.26341199874878,0,0.5335074103645734,0.5630983638012699,0.8424717239196153,0.8861489338056626,0.562669264127212,0.5630983638012699,0.8424717239196153,0.5137254901960784,0.47058823529411764,0.4980392156862745,0.43137254901960786,0.5215686274509804,0.5098039215686274,0.49019607843137253,0.49411764705882355
9,11.265583992004395,0,0.5197998378532966,0.6026980127715705,0.8453002900085672,0.8863194356004253,0.561855037068533,0.6026980127715705,0.8453002900085672,0.49019607843137253,0.5058823529411764,0.4980392156862745,0.4980392156862745,0.5058823529411764,0.5058823529411764,0.5058823529411764,0.4980392156862745
10,11.294311046600342,0,0.569408195725348,0.6316362263576533,0.8461706008972878,0.8862374443027321,0.5615829462735089,0.6316362263576533,0.8461706008972878,0.5019607843137255,0.5098039215686274,0.49019607843137253,0.4980392156862745,0.49411764705882355,0.4980392156862745,0.5058823529411764,0.5058823529411764
11,11.3233380317688,0,0.5446040190173467,0.6235857414637924,0.8320278595735043,0.8863394298913355,0.5604933532239468,0.6235857414637924,0.8320278595735043,0.4980392156862745,0.5333333333333333,0.5215686274509804,0.5137254901960784,0.49019607843137253,0.4980392156862745,0.49411764705882355,0.49411764705882355
12,11.32553505897522,0,0.4986945309932898,0.6096605890023112,0.8302872244279168,0.8865129261508837,0.5589934694822597,0.6096605890023112,0.8302872244279168,0.48627450980392156,0.4392156862745098,0.48627450980392156,0.5058823529411764,0.5019607843137255,0.4980392156862745,0.49411764705882355,0.49411764705882355
13,11.354712009429932,0,0.5052219455412017,0.6153176855318244,0.8470409117860084,0.8865931127488179,0.558122802109636,0.6153176855318244,0.8470409117860084,0.5019607843137255,0.48627450980392156,0.5019607843137255,0.5058823529411764,0.4980392156862745,0.49411764705882355,0.49411764705882355,0.4980392156862745
14,11.443772077560425,0,0.5167537140943842,0.6170583251334608,0.8529155882657262,0.88655046836192,0.5579351222467969,0.6170583251334608,0.8529155882657262,0.49411764705882355,0.4980392156862745,0.5019607843137255,0.5176470588235295,0.49411764705882355,0.49019607843137253,0.49019607843137253,0.5019607843137255
15,11.446213006973267,0,0.4858572809564605,0.6333768659592897,0.8494343001503559,0.886424375549375,0.558182196783927,0.6333768659592897,0.8494343001503559,0.4980392156862745,0.4980392156862745,0.4823529411764706,0.48627450980392156,0.5019607843137255,0.4980392156862745,0.5019607843137255,0.5058823529411764
16,11.447676062583925,0,0.4577893955485676,0.6444734701560143,0.8439948013952423,0.8864466869856549,0.5580994746942326,0.6444734701560143,0.8439948013952423,0.5019607843137255,0.4980392156862745,0.49019607843137253,0.48627450980392156,0.5019607843137255,0.5019607843137255,0.5058823529411764,0.4980392156862745
17,11.474255084991455,0,0.4284160270528504,0.6294604179435103,0.8422541528815083,0.8877680257645176,0.5544250658804533,0.6294604179435103,0.8422541528815083,0.49411764705882355,0.4980392156862745,0.5098039215686274,0.5176470588235295,0.49411764705882355,0.49411764705882355,0.49019607843137253,0.4980392156862745
18,11.50334107875824,0,0.4199303867146292,0.6181462293405323,0.8470409117860084,0.8885298764257462,0.5521676716690567,0.6181462293405323,0.8470409117860084,0.5019607843137255,0.5019607843137255,0.4980392156862745,0.48627450980392156,0.49411764705882355,0.4980392156862745,0.4980392156862745,0.49411764705882355
19,11.505592107772827,0,0.4131853904340931,0.6053089810861226,0.8570496251438078,0.8892879528136516,0.5500454695218294,0.6053089810861226,0.8570496251438078,0.5019607843137255,0.5176470588235295,0.4980392156862745,0.5137254901960784,0.4980392156862745,0.5019607843137255,0.5058823529411764,0.4980392156862745
20,11.534386992454527,0,0.42080070918907664,0.5966057563416481,0.8653176855318244,0.8899473901055932,0.5484693516974827,0.5966057563416481,0.8653176855318244,0.4980392156862745,0.5019607843137255,0.5137254901960784,0.4980392156862745,0.5019607843137255,0.5019607843137255,0.4980392156862745,0.5019607843137255
21,11.563448071479796,0,0.4214534508221098,0.6111836531097917,0.8529155882657262,0.8904899051333949,0.5475443027054544,0.6111836531097917,0.8529155882657262,0.5058823529411764,0.5137254901960784,0.5176470588235295,0.5098039215686274,0.5019607843137255,0.5058823529411764,0.5019607843137255,0.5098039215686274
22,11.565741062164307,0,0.3970844340145176,0.6370757340248645,0.8476936650047683,0.8910913157580234,0.5463753786193254,0.6370757340248645,0.8476936650047683,0.4980392156862745,0.49411764705882355,0.5176470588235295,0.5254901960784314,0.5019607843137255,0.4980392156862745,0.4980392156862745,0.4980392156862745
23,11.59430205821991,0,0.38315928155303636,0.6396867023394166,0.8546562412355089,0.8919550183263918,0.5439534002459561,0.6396867023394166,0.8546562412355089,0.4980392156862745,0.4980392156862745,0.49411764705882355,0.5058823529411764,0.49411764705882355,0.49411764705882355,0.5019607843137255,0.49019607843137253
24,11.623377084732056,0,0.4001305622294788,0.6137946169682951,0.8681462293405324,0.8929174936721878,0.540963574207427,0.6137946169682951,0.8681462293405324,0.5098039215686274,0.5058823529411764,0.5098039215686274,0.49019607843137253,0.49411764705882355,0.49411764705882355,0.49411764705882355,0.4980392156862745
25,11.625563025474547,0,0.4081810399936617,0.5922541484254596,0.866188018700789,0.8937378522539987,0.5388156606586948,0.5922541484254596,0.866188018700789,0.4980392156862745,0.4980392156862745,0.49019607843137253,0.49411764705882355,0.5019607843137255,0.49411764705882355,0.4980392156862745,0.4980392156862745
26,11.654751062393188,0,0.3996954023290697,0.5989991447059957,0.8620539773666588,0.8943578668823157,0.5378354814310653,0.5989991447059957,0.8620539773666588,0.5019607843137255,0.4980392156862745,0.49411764705882355,0.5098039215686274,0.49019607843137253,0.5019607843137255,0.4980392156862745,0.49019607843137253
27,11.68368399143219,0,0.39033943773398155,0.6124891372670678,0.8596605934583599,0.8949065401695419,0.537265151746731,0.6124891372670678,0.8596605934583599,0.4980392156862745,0.49411764705882355,0.49019607843137253,0.49411764705882355,0.49411764705882355,0.4980392156862745,0.49411764705882355,0.5098039215686274
28,11.686545014381409,0,0.39425588574976095,0.6224978417127697,0.8729330060692274,0.8954557214463299,0.5367220841688796,0.6224978417127697,0.8729330060692274,0.5058823529411764,0.49411764705882355,0.49019607843137253,0.4980392156862745,0.4980392156862745,0.4980392156862745,0.4980392156862745,0.5019607843137255
29,11.714755058288574,0,0.407310718410424,0.6159704253824381,0.8716275174559027,0.8959542018000121,0.5363652749743042,0.6159704253824381,0.8716275174559027,0.4980392156862745,0.49411764705882355,0.5058823529411764,0.49019607843137253,0.4980392156862745,0.5019607843137255,0.4980392156862745,0.49411764705882355
30,11.743701100349426,0,0.4051349126699102,0.61749348503387,0.8670583295895096,0.8964034383585412,0.5360413558758306,0.61749348503387,0.8670583295895096,0.49411764705882355,0.4980392156862745,0.5098039215686274,0.49411764705882355,0.4980392156862745,0.5098039215686274,0.5019607843137255,0.4980392156862745
31,11.746639013290405,0,0.4053524944025343,0.6181462293405323,0.8668407407272075,0.8969543485822591,0.5348954962982265,0.6181462293405323,0.8668407407272075,0.49019607843137253,0.5098039215686274,0.5019607843137255,0.5098039215686274,0.4980392156862745,0.48627450980392156,0.49411764705882355,0.4980392156862745
32,11.774765014648438,0,0.41688426028208747,0.6124891372670678,0.8533507659903304,0.8976429551695646,0.5326123149324957,0.6124891372670678,0.8533507659903304,0.49411764705882355,0.5019607843137255,0.49019607843137253,0.49411764705882355,0.4980392156862745,0.4980392156862745,0.49019607843137253,0.49411764705882355
33,11.803544044494627,0,0.4218886107225189,0.5992167246562002,0.8568320541057008,0.8983370293287327,0.5299219264604008,0.5992167246562002,0.8568320541057008,0.5058823529411764,0.48627450980392156,0.4980392156862745,0.49411764705882355,0.4980392156862745,0.5098039215686274,0.4980392156862745,0.5019607843137255
34,11.806183099746704,0,0.41492603449177823,0.5818102840793486,0.8631418815737302,0.8988780961406785,0.52790871926652,0.5818102840793486,0.8631418815737302,0.4980392156862745,0.5019607843137255,0.4980392156862745,0.4980392156862745,0.5058823529411764,0.4980392156862745,0.5058823529411764,0.4980392156862745
35,11.835205078125,0,0.4194952268142201,0.5815927041291441,0.8622715528608145,0.8991201130624347,0.5275819037363345,0.5815927041291441,0.8622715528608145,0.4980392156862745,0.5019607843137255,0.49411764705882355,0.49019607843137253,0.49411764705882355,0.49411764705882355,0.5019607843137255,0.5058823529411764
36,11.864039063453676,0,0.42776328541981723,0.5937772125329401,0.8614012419720938,0.8990870981969667,0.5286417526602388,0.5937772125329401,0.8614012419720938,0.4980392156862745,0.49411764705882355,0.5176470588235295,0.5176470588235295,0.5019607843137255,0.4980392156862745,0.4980392156862745,0.5019607843137255
37,11.866984009742735,0,0.43298521759287273,0.5989991447059957,0.8603133422210711,0.8990477245498787,0.5293741844873712,0.5989991447059957,0.8603133422210711,0.5058823529411764,0.49019607843137253,0.4980392156862745,0.4980392156862745,0.5019607843137255,0.4980392156862745,0.49411764705882355,0.4980392156862745
38,11.895209074020386,0,0.4414708574854891,0.5922541484254596,0.8642297813247529,0.8991563630193223,0.5287486087101672,0.5922541484254596,0.8642297813247529,0.5019607843137255,0.49411764705882355,0.4980392156862745,0.49411764705882355,0.49411764705882355,0.4980392156862745,0.49411764705882355,0.4980392156862745
39,11.953435063362123,0,0.4553960099469703,0.5726719038905137,0.8744560657206594,0.8993770577476294,0.526954028637956,0.5726719038905137,0.8744560657206594,0.5019607843137255,0.5019607843137255,0.48627450980392156,0.4823529411764706,0.4980392156862745,0.49411764705882355,0.5058823529411764,0.4980392156862745
40,11.95518410205841,0,0.4577893955485676,0.5561357875705292,0.8792428379933057,0.8995689040160852,0.5249959828720179,0.5561357875705292,0.8792428379933057,0.5019607843137255,0.5019607843137255,0.49411764705882355,0.5176470588235295,0.49019607843137253,0.4980392156862745,0.4980392156862745,0.5019607843137255
41,11.957572102546694,0,0.4577893955485676,0.5459095031746228,0.8805483221505818,0.8996067358702924,0.5237736129367295,0.5459095031746228,0.8805483221505818,0.5019607843137255,0.49411764705882355,0.49019607843137253,0.48627450980392156,0.5019607843137255,0.4980392156862745,0.5019607843137255,0.5019607843137255
42,11.983916997909546,0,0.4645343912498174,0.5548302989572043,0.8848999300667703,0.8994629391759142,0.5235276925162353,0.5548302989572043,0.8848999300667703,0.5019607843137255,0.4980392156862745,0.5019607843137255,0.48627450980392156,0.5058823529411764,0.4980392156862745,0.5019607843137255,0.5019607843137255
43,11.98595106601715,0,0.48346389526574224,0.5650565833531107,0.886422994174251,0.8991948187203599,0.5237186475749336,0.5650565833531107,0.886422994174251,0.4980392156862745,0.4980392156862745,0.5019607843137255,0.4980392156862745,0.4980392156862745,0.49411764705882355,0.48627450980392156,0.4980392156862745
44,12.014310002326965,0,0.49564840366953833,0.5826806038801668,0.8879460582817315,0.8989234899096784,0.5235555472772071,0.5826806038801668,0.8879460582817315,0.4980392156862745,0.5019607843137255,0.49411764705882355,0.49411764705882355,0.4980392156862745,0.4980392156862745,0.5019607843137255,0.4980392156862745
45,12.043488025665285,0,0.5023933995044695,0.5850739922445144,0.8844647701663612,0.8987079820221601,0.5226582951175162,0.5850739922445144,0.8844647701663612,0.5058823529411764,0.5215686274509804,0.4980392156862745,0.48627450980392156,0.4980392156862745,0.5058823529411764,0.49411764705882355,0.5019607843137255
46,12.045922994613647,0,0.5145779079082656,0.5787641558643873,0.8816362219016045,0.898472181288463,0.5215172124242127,0.5787641558643873,0.8816362219016045,0.47058823529411764,0.47058823529411764,0.4980392156862745,0.4745098039215686,0.5019607843137255,0.4980392156862745,0.5019607843137255,0.49411764705882355
47,12.074418067932127,0,0.5319843507131415,0.5837685036311896,0.8851175100169748,0.8980694435990328,0.5212421405325495,0.5837685036311896,0.8851175100169748,0.5137254901960784,0.5137254901960784,0.47843137254901963,0.4627450980392157,0.49411764705882355,0.4980392156862745,0.49411764705882355,0.49411764705882355
48,12.103679060935974,0,0.5478677227264637,0.5859443120453326,0.899260233516563,0.8974137360199266,0.5225472102772882,0.5859443120453326,0.899260233516563,0.47843137254901963,0.5490196078431373,0.5019607843137255,0.5098039215686274,0.5019607843137255,0.49411764705882355,0.5058823529411764,0.4980392156862745
49,12.106260061264038,0,0.5700609400320105,0.5896431801109075,0.8983899226278423,0.8965301461058188,0.5253234757216192,0.5896431801109075,0.8983899226278423,0.5019607843137255,0.49019607843137253,0.5058823529411764,0.5058823529411764,0.4980392156862745,0.4980392156862745,0.4980392156862745,0.5019607843137255
50,12.13495910167694,0,0.5850739922445144,0.6107484976654314,0.8755439699277308,0.8954657742923949,0.5290491112722616,0.6107484976654314,0.8755439699277308,0.5294117647058824,0.47058823529411764,0.5176470588235295,0.5568627450980392,0.48627450980392156,0.49411764705882355,0.4980392156862745,0.4980392156862745
51,12.163527011871338,0,0.5868146363021995,0.630983477594942,0.855961725392785,0.8944046286582935,0.5324760355924223,0.630983477594942,0.855961725392785,0.49019607843137253,0.5098039215686274,0.5137254901960784,0.5058823529411764,0.5058823529411764,0.5019607843137255,0.4980392156862745,0.4980392156862745
52,12.167590022087095,0,0.5935596325827356,0.6303307377443285,0.8592254424700484,0.893446631641529,0.53505882831049,0.6303307377443285,0.8592254424700484,0.5333333333333333,0.5019607843137255,0.5176470588235295,0.5764705882352941,0.5058823529411764,0.4980392156862745,0.5019607843137255,0.5137254901960784
53,12.194889068603516,0,0.6094430090521066,0.615535265482029,0.8581375293508793,0.8923881329004074,0.5379694213455253,0.615535265482029,0.8581375293508793,0.48627450980392156,0.47058823529411764,0.49019607843137253,0.4666666666666667,0.5019607843137255,0.5019607843137255,0.5019607843137255,0.5019607843137255
54,12.223388075828552,0,0.6192341335476039,0.6151000966695224,0.8537859169786419,0.8910775777596109,0.5421297622796004,0.6151000966695224,0.8537859169786419,0.49411764705882355,0.5176470588235295,0.5019607843137255,0.4196078431372549,0.5176470588235295,0.5098039215686274,0.5137254901960784,0.5019607843137255
55,12.225834012031555,0,0.625108805571273,0.6235857414637924,0.8370322251645016,0.8895011747481418,0.5474607562467342,0.6235857414637924,0.8370322251645016,0.5137254901960784,0.47843137254901963,0.49019607843137253,0.49411764705882355,0.4823529411764706,0.4980392156862745,0.4980392156862745,0.5019607843137255
56,12.254440069198608,0,0.6211923620115424,0.6288076736368479,0.8311575486847838,0.8878084109346802,0.5530408344290014,0.6288076736368479,0.8311575486847838,0.5019607843137255,0.5058823529411764,0.49411764705882355,0.5176470588235295,0.4980392156862745,0.5019607843137255,0.49019607843137253,0.49411764705882355
57,12.284167051315308,0,0.6270670295791627,0.6335944459094942,0.8218015840896956,0.8860315614805951,0.5586417936558877,0.6335944459094942,0.8218015840896956,0.47843137254901963,0.49411764705882355,0.5019607843137255,0.5176470588235295,0.5058823529411764,0.49411764705882355,0.5019607843137255,0.4980392156862745
58,12.28631603717804,0,0.6359878253617443,0.6396867023394166,0.8146214189966529,0.8841622757504587,0.5642465360681946,0.6396867023394166,0.8146214189966529,0.4980392156862745,0.47843137254901963,0.5058823529411764,0.5215686274509804,0.4980392156862745,0.5019607843137255,0.49411764705882355,0.48627450980392156
59,12.313664078712465,0,0.6420800907037642,0.6514360463867549,0.8072236917776008,0.88220283524125,0.5697404699152985,0.6514360463867549,0.8072236917776008,0.5137254901960784,0.5215686274509804,0.49411764705882355,0.49411764705882355,0.5019607843137255,0.5019607843137255,0.5058823529411764,0.5019607843137255
60,12.34302306175232,0,0.6507833065361412,0.6668842629557167,0.8020017551484965,0.8802158385263382,0.5749078823314369,0.6668842629557167,0.8020017551484965,0.48627450980392156,0.4745098039215686,0.5019607843137255,0.47843137254901963,0.49019607843137253,0.49411764705882355,0.4980392156862745,0.4980392156862745
61,12.344856023788452,0,0.6581810426672909,0.6773281273018277,0.7861183920472719,0.8782545977734193,0.5794492644533947,0.6773281273018277,0.7861183920472719,0.48627450980392156,0.47843137254901963,0.4980392156862745,0.49019607843137253,0.5019607843137255,0.5019607843137255,0.5019607843137255,0.4980392156862745
62,12.373584032058716,0,0.6792863513097174,0.6871192473412763,0.7887293469936776,0.8763122061068722,0.5835529199908419,0.6871192473412763,0.7887293469936776,0.47058823529411764,0.48627450980392156,0.5098039215686274,0.5411764705882353,0.5098039215686274,0.49411764705882355,0.4980392156862745,0.4980392156862745
63,12.402867078781128,0,0.6951697233230395,0.6814621597238604,0.7661009742437705,0.8743168141960445,0.5874475511917567,0.6814621597238604,0.7661009742437705,0.5058823529411764,0.49411764705882355,0.49019607843137253,0.47058823529411764,0.49019607843137253,0.5019607843137255,0.49411764705882355,0.5019607843137255
64,12.404734015464784,0,0.6942994124343189,0.6836379592259059,0.7554395210353575,0.8723335783863096,0.5908753667216751,0.6836379592259059,0.7554395210353575,0.5019607843137255,0.5137254901960784,0.4980392156862745,0.49411764705882355,0.5019607843137255,0.5019607843137255,0.4980392156862745,0.5019607843137255
65,12.433269023895265,0,0.6910356998131043,0.6823324795246786,0.75304613267101,0.8702611369358942,0.5940559606648531,0.6823324795246786,0.75304613267101,0.5215686274509804,0.49019607843137253,0.47058823529411764,0.4980392156862745,0.5019607843137255,0.5019607843137255,0.5019607843137255,0.5019607843137255
66,12.463325023651125,0,0.7038729480675141,0.6853786077396399,0.7580504982620072,0.8679821130636822,0.597457739501705,0.6853786077396399,0.7580504982620072,0.4823529411764706,0.4470588235294118,0.4980392156862745,0.4980392156862745,0.4823529411764706,0.49019607843137253,0.49019607843137253,0.48627450980392156
67,12.465339064598085,0,0.7016971441094199,0.6853786077396399,0.7471714695594385,0.8655669524449582,0.6009045422555075,0.6853786077396399,0.7471714695594385,0.49019607843137253,0.49411764705882355,0.49411764705882355,0.5058823529411764,0.4823529411764706,0.4980392156862745,0.49019607843137253,0.4666666666666667
68,12.493256092071533,0,0.6947345678786793,0.6938642347097146,0.7365100252631229,0.8629274609621161,0.6046573819839987,0.6938642347097146,0.7365100252631229,0.5176470588235295,0.5019607843137255,0.5058823529411764,0.49019607843137253,0.5019607843137255,0.5098039215686274,0.5058823529411764,0.5098039215686274
69,12.522904992103575,0,0.7119234285053262,0.697127951786978,0.7404264688228536,0.8601537889381797,0.60854684416832,0.697127951786978,0.7404264688228536,0.4823529411764706,0.5215686274509804,0.5019607843137255,0.5098039215686274,0.5058823529411764,0.5019607843137255,0.4980392156862745,0.5019607843137255
70,12.524527072906494,0,0.7197563289929337,0.6914708597135135,0.7269364940859766,0.8573771937462384,0.6121088224151374,0.6914708597135135,0.7269364940859766,0.4980392156862745,0.5058823529411764,0.5294117647058824,0.5490196078431373,0.5176470588235295,0.5019607843137255,0.5058823529411764,0.4980392156862745
71,12.553242087364195,0,0.723237617108304,0.6845082834827729,0.7099652044974365,0.8546188460740829,0.6152155840859524,0.6845082834827729,0.7099652044974365,0.5019607843137255,0.5137254901960784,0.49411764705882355,0.48627450980392156,0.4980392156862745,0.49019607843137253,0.49411764705882355,0.4980392156862745
72,12.583640098571776,0,0.7343342213050287,0.6818973196242695,0.7162750408775634,0.8520096735471921,0.6176370455576624,0.6818973196242695,0.7162750408775634,0.5019607843137255,0.49019607843137253,0.4980392156862745,0.48627450980392156,0.49019607843137253,0.49019607843137253,0.49019607843137253,0.4980392156862745
73,12.585300087928774,0,0.7671888739947934,0.6692776468640155,0.7121410084555307,0.8493185320028521,0.6200583733479087,0.6692776468640155,0.7121410084555307,0.5176470588235295,0.5019607843137255,0.4980392156862745,0.4823529411764706,0.47843137254901963,0.49411764705882355,0.5137254901960784,0.5098039215686274
74,12.613172054290773,0,0.7650130744927478,0.6664491075113563,0.6877719916479386,0.846687101512267,0.6222371806828858,0.6664491075113563,0.6877719916479386,0.49411764705882355,0.5019607843137255,0.49411764705882355,0.4745098039215686,0.5058823529411764,0.5019607843137255,0.49019607843137253,0.49411764705882355
75,12.643378019332886,0,0.7704525732478614,0.6679721671627883,0.6681897471129927,0.8441140229805566,0.6238893766281846,0.6679721671627883,0.6681897471129927,0.47843137254901963,0.4823529411764706,0.49411764705882355,0.4980392156862745,0.5019607843137255,0.4980392156862745,0.4980392156862745,0.5254901960784314
76,12.64528203010559,0,0.778067902697362,0.663620554790551,0.6527415305440308,0.841678114998677,0.6249008640545961,0.663620554790551,0.6527415305440308,0.5019607843137255,0.48627450980392156,0.49411764705882355,0.4745098039215686,0.48627450980392156,0.5019607843137255,0.5019607843137255,0.5098039215686274
77,12.673289060592651,0,0.7895996801626421,0.6620974906830703,0.6396867023394166,0.8391976108805304,0.6256056906594889,0.6620974906830703,0.6396867023394166,0.5058823529411764,0.5019607843137255,0.4980392156862745,0.49411764705882355,0.49411764705882355,0.5058823529411764,0.5019607843137255,0.4823529411764706
78,12.70387601852417,0,0.7935161192663239,0.6703655510710871,0.6294604179435103,0.8366386223750865,0.626447848231969,0.6703655510710871,0.6294604179435103,0.5019607843137255,0.48627450980392156,0.49411764705882355,0.5098039215686274,0.4980392156862745,0.5019607843137255,0.5019607843137255,0.5019607843137255
79,12.705947995185852,0,0.7965622563933829,0.6851610367015328,0.6227154216629742,0.8341624406242639,0.6272361098943622,0.6851610367015328,0.6227154216629742,0.5137254901960784,0.5098039215686274,0.5019607843137255,0.5098039215686274,0.5098039215686274,0.4980392156862745,0.4980392156862745,0.5058823529411764
80,12.733328104019165,0,0.8137511081079322,0.6892950468433217,0.6205396132488311,0.8318174449497504,0.6279405800153519,0.6892950468433217,0.6205396132488311,0.48627450980392156,0.4980392156862745,0.4980392156862745,0.49411764705882355,0.4823529411764706,0.49411764705882355,0.5019607843137255,0.47843137254901963
81,12.763478994369507,0,0.8287641603204362,0.6899477956060328,0.6151000966695224,0.8297119173370866,0.6282198049444851,0.6899477956060328,0.6151000966695224,0.5058823529411764,0.49411764705882355,0.4823529411764706,0.48627450980392156,0.4980392156862745,0.4980392156862745,0.49411764705882355,0.4980392156862745
82,12.765491008758545,0,0.8324630372981087,0.6890774758052146,0.6040034969288465,0.8278715023470454,0.6279395774043747,0.6890774758052146,0.6040034969288465,0.5137254901960784,0.5098039215686274,0.5058823529411764,0.49411764705882355,0.5137254901960784,0.5019607843137255,0.5058823529411764,0.5058823529411764
83,12.793381094932554,0,0.820278519982215,0.6838555480882079,0.5979112449549728,0.8263261802758703,0.6270986898057991,0.6838555480882079,0.5979112449549728,0.4745098039215686,0.4980392156862745,0.49411764705882355,0.5019607843137255,0.5019607843137255,0.49411764705882355,0.4980392156862745,0.4980392156862745
84,12.823405027389526,0,0.8146214189966529,0.6753699032939379,0.5942123679773005,0.8248807806427101,0.626008994267115,0.6753699032939379,0.5942123679773005,0.5137254901960784,0.5019607843137255,0.4980392156862745,0.5098039215686274,0.5019607843137255,0.4980392156862745,0.4980392156862745,0.5058823529411764
85,12.825323104858398,0,0.8093994957356949,0.6586162025677,0.5876849605590665,0.8233368265785129,0.6248695513997652,0.6586162025677,0.5876849605590665,0.49411764705882355,0.5058823529411764,0.5137254901960784,0.5058823529411764,0.4980392156862745,0.49411764705882355,0.4980392156862745,0.49411764705882355
86,12.853268027305605,0,0.8041775546505419,0.6542645946515115,0.5820278640295532,0.8215907684215508,0.6240511846717625,0.6542645946515115,0.5820278640295532,0.5058823529411764,0.4980392156862745,0.5019607843137255,0.5215686274509804,0.5098039215686274,0.5019607843137255,0.4980392156862745,0.5019607843137255
87,12.883517026901245,0,0.8000435445087531,0.6708007065154473,0.5774586761631602,0.8197492839798005,0.6234292539424668,0.6708007065154473,0.5774586761631602,0.48627450980392156,0.5019607843137255,0.49019607843137253,0.5019607843137255,0.4980392156862745,0.5019607843137255,0.5019607843137255,0.5058823529411764
88,12.885459065437315,0,0.7859008031849697,0.6749347433935289,0.5689730358249389,0.8180088003398717,0.6226133915138827,0.6749347433935289,0.5689730358249389,0.5137254901960784,0.5058823529411764,0.49019607843137253,0.48627450980392156,0.4666666666666667,0.49411764705882355,0.5019607843137255,0.5098039215686274
89,12.913441061973572,0,0.778067902697362,0.667319418400077,0.5593994912796462,0.8162200710597187,0.6216643466991327,0.667319418400077,0.5593994912796462,0.5372549019607843,0.5215686274509804,0.5058823529411764,0.5137254901960784,0.5137254901960784,0.5019607843137255,0.4980392156862745,0.49411764705882355
90,12.943397998809814,0,0.768276773745816,0.6588337825179046,0.5483028870829215,0.8143564623357377,0.6205971987673143,0.6588337825179046,0.5483028870829215,0.5058823529411764,0.4823529411764706,0.49019607843137253,0.4980392156862745,0.5058823529411764,0.5058823529411764,0.5019607843137255,0.5019607843137255
91,12.945321083068848,0,0.7600087089017505,0.6562228186594012,0.53633595862933,0.812207131763491,0.6197537400285882,0.6562228186594012,0.53633595862933,0.4823529411764706,0.49019607843137253,0.5019607843137255,0.4980392156862745,0.49411764705882355,0.5019607843137255,0.5058823529411764,0.49411764705882355
92,12.973152041435242,0,0.7508703331689646,0.6697128067644247,0.513707585879423,0.8094583512280825,0.6194809407218067,0.6697128067644247,0.513707585879423,0.47843137254901963,0.49019607843137253,0.5058823529411764,0.5019607843137255,0.5058823529411764,0.5019607843137255,0.49411764705882355,0.4823529411764706
93,13.003267049789429,0,0.7578329093997052,0.7069190762824753,0.5171888739947933,0.8063658533694368,0.6200558334000997,0.7069190762824753,0.5171888739947933,0.49019607843137253,0.48627450980392156,0.5019607843137255,0.4980392156862745,0.5058823529411764,0.4980392156862745,0.49411764705882355,0.5019607843137255
94,13.005186080932615,0,0.7726283905741022,0.74825937376651,0.5134900059292186,0.8030637385197701,0.6208393850189243,0.74825937376651,0.5134900059292186,0.47843137254901963,0.5019607843137255,0.4980392156862745,0.5019607843137255,0.5098039215686274,0.5058823529411764,0.4980392156862745,0.49019607843137253
95,13.033282995223999,0,0.7771975784404951,0.7454308344138508,0.531766770762937,0.8007382425147515,0.6195402239948781,0.7454308344138508,0.531766770762937,0.5058823529411764,0.4980392156862745,0.49411764705882355,0.4980392156862745,0.5058823529411764,0.49411764705882355,0.4980392156862745,0.5215686274509804
96,13.063300013542175,0,0.783072254920213,0.6934290837214031,0.5269799940342418,0.7984780276244723,0.6176622489696055,0.6934290837214031,0.5269799940342418,0.47843137254901963,0.47843137254901963,0.49411764705882355,0.47843137254901963,0.48627450980392156,0.49411764705882355,0.4823529411764706,0.4666666666666667
97,13.06549608707428,0,0.7758920987392679,0.6847258589769286,0.5256745143330145,0.7958502466378443,0.6168112773326234,0.6847258589769286,0.5256745143330145,0.5333333333333333,0.5098039215686274,0.49411764705882355,0.5058823529411764,0.49019607843137253,0.5058823529411764,0.5058823529411764,0.5098039215686274
98,13.093252062797545,0,0.75304613267101,0.7160574520152614,0.5091383953394008,0.7926789168200957,0.6174147020913039,0.7160574520152614,0.5091383953394008,0.4627450980392157,0.4823529411764706,0.5019607843137255,0.4980392156862745,0.5058823529411764,0.5098039215686274,0.5058823529411764,0.49019607843137253
99,13.123448014259338,0,0.7565274207863802,0.7674064628570955,0.4889034091714218,0.7895150597961642,0.6177368164900185,0.7674064628570955,0.4889034091714218,0.49411764705882355,0.4980392156862745,0.5058823529411764,0.4980392156862745,0.5098039215686274,0.5058823529411764,0.5058823529411764,0.49411764705882355
100,13.153362035751345,0,0.7859008031849697,0.788511767043473,0.47628373863919216,0.7868355930996479,0.6164648061712353,0.788511767043473,0.47628373863919216,0.5019607843137255,0.49411764705882355,0.49411764705882355,0.49019607843137253,0.49019607843137253,0.4980392156862745,0.48627450980392156,0.49019607843137253
101,13.155301094055176,0,0.7969974073816943,0.7523934106445914,0.4725848701280125,0.7842188675700621,0.6139054656379374,0.7523934106445914,0.4725848701280125,0.5176470588235295,0.5176470588235295,0.4980392156862745,0.5098039215686274,0.4980392156862745,0.5019607843137255,0.5137254901960784,0.5137254901960784
102,13.183309078216553,0,0.8002611155468601,0.7160574520152614,0.4754134166103496,0.7810851066996426,0.6116452017311215,0.7160574520152614,0.4754134166103496,0.48627450980392156,0.4823529411764706,0.5019607843137255,0.4980392156862745,0.5098039215686274,0.4980392156862745,0.4980392156862745,0.49019607843137253
103,13.185165047645569,0,0.7976501561444055,0.7114882641488685,0.467362937954957,0.7771840142279856,0.6102109956925158,0.7114882641488685,0.467362937954957,0.4980392156862745,0.5058823529411764,0.5019607843137255,0.5058823529411764,0.5019607843137255,0.49411764705882355,0.47843137254901963,0.4823529411764706
104,13.213203072547913,0,0.8083115915286234,0.720191488893343,0.4808529287336096,0.7729634988110816,0.6093111902168696,0.720191488893343,0.4808529287336096,0.49411764705882355,0.4980392156862745,0.4980392156862745,0.5098039215686274,0.5019607843137255,0.49019607843137253,0.5019607843137255,0.49019607843137253
105,13.243279099464415,0,0.8259356120556794,0.7269364940859766,0.4804177688332006,0.76863311059922,0.6087915971040316,0.7269364940859766,0.4804177688332006,0.4823529411764706,0.5098039215686274,0.5098039215686274,0.49019607843137253,0.4980392156862745,0.4980392156862745,0.5019607843137255,0.5019607843137255
106,13.245207071304321,0,0.793733690304431,0.7362924453129184,0.4419060187227128,0.7638779851850637,0.6084946281886259,0.7362924453129184,0.4419060187227128,0.49019607843137253,0.49019607843137253,0.49019607843137253,0.49019607843137253,0.49411764705882355,0.5058823529411764,0.5019607843137255,0.49411764705882355
107,13.273316025733948,0,0.7615317863773775,0.7375979294701945,0.41971280676442463,0.7586509686603415,0.6083017703970953,0.7375979294701945,0.41971280676442463,0.5215686274509804,0.5058823529411764,0.5019607843137255,0.4980392156862745,0.5019607843137255,0.49411764705882355,0.5019607843137255,0.5137254901960784
108,13.303405046463013,0,0.7800261267052518,0.7130113416244953,0.4240644169086375,0.7534347892462709,0.6077335350556913,0.7130113416244953,0.4240644169086375,0.48627450980392156,0.49019607843137253,0.5019607843137255,0.49411764705882355,0.5019607843137255,0.5058823529411764,0.5058823529411764,0.5137254901960784
109,13.305285096168518,0,0.8176675561237117,0.6573107228664727,0.4216710307723143,0.7481720441223692,0.6071282833170079,0.6573107228664727,0.4216710307723143,0.49019607843137253,0.49411764705882355,0.4980392156862745,0.4980392156862745,0.49019607843137253,0.4980392156862745,0.4980392156862745,0.49019607843137253
110,13.333303093910216,0,0.8102698199925619,0.6890774758052146,0.4160139386988498,0.742324990689086,0.6077811702172314,0.6890774758052146,0.4160139386988498,0.5294117647058824,0.5019607843137255,0.49019607843137253,0.5019607843137255,0.4980392156862745,0.49411764705882355,0.5058823529411764,0.5254901960784314
111,13.363821029663086,0,0.7863359630853789,0.7493472735175326,0.39251524614812455,0.7358676189896479,0.6097749980549346,0.7493472735175326,0.39251524614812455,0.5882352941176471,0.5176470588235295,0.4823529411764706,0.4980392156862745,0.5098039215686274,0.49019607843137253,0.5058823529411764,0.5490196078431373
112,13.366231083869936,0,0.7613141975150755,0.7689295225085273,0.351610108564499,0.7295729732798382,0.611291498402551,0.7689295225085273,0.351610108564499,0.42745098039215684,0.4666666666666667,0.5019607843137255,0.5058823529411764,0.49411764705882355,0.4980392156862745,0.49019607843137253,0.45098039215686275
113,13.393259048461914,0,0.7689295225085273,0.738033080458506,0.3620539729106099,0.7245386051123534,0.610827521234632,0.738033080458506,0.3620539729106099,0.5254901960784314,0.48627450980392156,0.4980392156862745,0.5098039215686274,0.4980392156862745,0.48627450980392156,0.5019607843137255,0.5176470588235295
114,13.453227996826172,0,0.7887293469936776,0.6764578030449607,0.3592254246458533,0.7204957880090043,0.6092011659162532,0.6764578030449607,0.3592254246458533,0.4549019607843137,0.49019607843137253,0.5098039215686274,0.49019607843137253,0.4980392156862745,0.5058823529411764,0.4980392156862745,0.47843137254901963
115,13.484149098396301,0,0.76523066335505,0.6631853948901418,0.3313751197228908,0.7163918784767764,0.6078702020720091,0.6631853948901418,0.3313751197228908,0.4549019607843137,0.4980392156862745,0.49019607843137253,0.48627450980392156,0.4980392156862745,0.49019607843137253,0.5019607843137255,0.47843137254901963
116,13.513428092002867,0,0.7558746987599618,0.7308529331896584,0.28872934253762883,0.6987833382632086,0.6068569856986679,0.7308529331896584,0.28872934253762883,0.5686274509803921,0.5058823529411764,0.48627450980392156,0.4980392156862745,0.47843137254901963,0.4823529411764706,0.49411764705882355,0.5372549019607843
117,13.5434730052948,0,0.7684943626081181,0.7151871411265407,0.2952567588679604,0.6950005939913033,0.6064747681139051,0.7151871411265407,0.2952567588679604,0.5176470588235295,0.4980392156862745,0.49411764705882355,0.5019607843137255,0.5137254901960784,0.5098039215686274,0.5058823529411764,0.5058823529411764
118,13.545453071594238,0,0.7828546749700086,0.7097476245472321,0.2885117625874243,0.6914432366670786,0.6065054034493204,0.7097476245472321,0.2885117625874243,0.5176470588235295,0.5058823529411764,0.4980392156862745,0.49411764705882355,0.5019607843137255,0.4980392156862745,0.5058823529411764,0.5137254901960784
119,13.573385000228882,0,0.7782854826475667,0.7395561579341329,0.2774151494786022,0.6881722250379498,0.6070446299131168,0.7395561579341329,0.2774151494786022,0.5490196078431373,0.5058823529411764,0.49411764705882355,0.5058823529411764,0.49411764705882355,0.49019607843137253,0.49411764705882355,0.5176470588235295
120,13.603353023529053,0,0.7584856581624164,0.7563098497482733,0.25522194108515306,0.6854818454779527,0.607046011288241,0.7563098497482733,0.25522194108515306,0.48627450980392156,0.49411764705882355,0.4980392156862745,0.5137254901960784,0.5019607843137255,0.4980392156862745,0.49411764705882355,0.49019607843137253
121,13.605322003364565,0,0.7541340457901791,0.7375979294701945,0.25348130148351666,0.6836656892175115,0.6062068481805463,0.7375979294701945,0.25348130148351666,0.4627450980392157,0.48627450980392156,0.5019607843137255,0.49019607843137253,0.49411764705882355,0.5019607843137255,0.49019607843137253,0.48627450980392156
122,13.633361101150513,0,0.7711053264666214,0.7064839163820662,0.26153177746528,0.6823841162180301,0.605361566917866,0.7064839163820662,0.26153177746528,0.5176470588235295,0.5058823529411764,0.49411764705882355,0.49411764705882355,0.49019607843137253,0.4980392156862745,0.5019607843137255,0.5058823529411764
123,13.66362202167511,0,0.769799851221443,0.718450840379609,0.26523064553085485,0.6811829704431175,0.6052498448626614,0.718450840379609,0.26523064553085485,0.5019607843137255,0.4980392156862745,0.5019607843137255,0.5098039215686274,0.4980392156862745,0.4980392156862745,0.49411764705882355,0.49019607843137253
124,13.665431022644045,0,0.7630548460288094,0.733463892592113,0.2600087089017506,0.6803159436623534,0.6056599573128351,0.733463892592113,0.2600087089017506,0.4980392156862745,0.4823529411764706,0.5019607843137255,0.49019607843137253,0.5019607843137255,0.5019607843137255,0.5058823529411764,0.5019607843137255
125,13.693252086639404,0,0.7626196861284003,0.7319408329406811,0.26022629776405265,0.6803211750636301,0.6057450232841917,0.7319408329406811,0.26022629776405265,0.5686274509803921,0.5372549019607843,0.49019607843137253,0.49411764705882355,0.49019607843137253,0.49019607843137253,0.5058823529411764,0.5372549019607843
126,13.723459005355835,0,0.7558746987599618,0.723237617108304,0.2580504893499097,0.6808582447998133,0.6055500934299749,0.723237617108304,0.2580504893499097,0.47058823529411764,0.5019607843137255,0.49411764705882355,0.49019607843137253,0.5019607843137255,0.5137254901960784,0.5058823529411764,0.4823529411764706
127,13.725394010543823,0,0.7556571098976597,0.7093124646468228,0.263707585879423,0.6815403901163768,0.6054699603046262,0.7093124646468228,0.263707585879423,0.4823529411764706,0.48627450980392156,0.49411764705882355,0.4980392156862745,0.4980392156862745,0.4980392156862745,0.5058823529411764,0.4980392156862745
128,13.753355026245115,0,0.7689295225085273,0.7049608522745855,0.2741514502255339,0.68273627775372,0.605551033656269,0.7049608522745855,0.2741514502255339,0.5294117647058824,0.5450980392156862,0.5019607843137255,0.49411764705882355,0.49019607843137253,0.48627450980392156,0.5058823529411764,0.5098039215686274
129,13.783498048782349,0,0.7552219499972506,0.7267189052236743,0.26087903761466635,0.6842027366734508,0.605604007164257,0.7267189052236743,0.26087903761466635,0.4745098039215686,0.48627450980392156,0.5058823529411764,0.5019607843137255,0.5019607843137255,0.5019607843137255,0.49019607843137253,0.4823529411764706
130,13.785457015037535,0,0.7580504982620072,0.7389034091714217,0.26392516582962755,0.68610990773038,0.6051166580204466,0.7389034091714217,0.26392516582962755,0.4666666666666667,0.5019607843137255,0.5098039215686274,0.5098039215686274,0.5098039215686274,0.49411764705882355,0.49019607843137253,0.48627450980392156
131,13.813202023506165,0,0.7606614621205106,0.7306353532394538,0.27045257324786154,0.6887850520595723,0.6038173499467903,0.7306353532394538,0.27045257324786154,0.47058823529411764,0.4745098039215686,0.5058823529411764,0.49019607843137253,0.5019607843137255,0.5058823529411764,0.4980392156862745,0.49019607843137253
132,13.843466997146606,0,0.7691471024587319,0.7038729480675141,0.2854656343724631,0.692040596743359,0.6021259987007943,0.7038729480675141,0.2854656343724631,0.5019607843137255,0.4745098039215686,0.49019607843137253,0.5019607843137255,0.5019607843137255,0.49411764705882355,0.4980392156862745,0.5058823529411764
133,13.845324039459227,0,0.7872062917982946,0.7008268109404553,0.30374239475013287,0.6955758342414017,0.6010378449549907,0.7008268109404553,0.30374239475013287,0.4980392156862745,0.5019607843137255,0.5058823529411764,0.49411764705882355,0.5137254901960784,0.5058823529411764,0.4980392156862745,0.49411764705882355
134,13.873383045196533,0,0.7969974073816943,0.7332463170979572,0.31744996726140956,0.6997099691525566,0.6005483791880063,0.7332463170979572,0.31744996726140956,0.5254901960784314,0.5137254901960784,0.5019607843137255,0.5137254901960784,0.5019607843137255,0.49411764705882355,0.49019607843137253,0.49411764705882355
135,13.90334701538086,0,0.778067902697362,0.7669712851324911,0.2987380469833307,0.7045831263870009,0.5994632288190855,0.7669712851324911,0.2987380469833307,0.4823529411764706,0.4588235294117647,0.4823529411764706,0.48627450980392156,0.5058823529411764,0.5058823529411764,0.5176470588235295,0.5098039215686274
136,13.90552008152008,0,0.7454308344138508,0.7704525732478614,0.27785031829110884,0.7103697513426742,0.5960327396598948,0.7704525732478614,0.27785031829110884,0.4745098039215686,0.49019607843137253,0.4980392156862745,0.5058823529411764,0.49019607843137253,0.5058823529411764,0.5019607843137255,0.49411764705882355
137,13.933290004730225,0,0.810487408854864,0.7421671173365875,0.31788512716181866,0.7164131783899814,0.5917928939033499,0.7421671173365875,0.31788512716181866,0.5568627450980392,0.49411764705882355,0.49019607843137253,0.5098039215686274,0.49411764705882355,0.49411764705882355,0.4980392156862745,0.5137254901960784
138,13.96331000328064,0,0.8764142941845977,0.733463892592113,0.37249783725672087,0.7235188829077821,0.5879070678548394,0.733463892592113,0.37249783725672087,0.47058823529411764,0.5098039215686274,0.5098039215686274,0.5058823529411764,0.5098039215686274,0.5058823529411764,0.47058823529411764,0.4627450980392157
139,13.965301990509033,0,0.890121857783777,0.7415143685738763,0.40644039593597653,0.7322163949977109,0.5840149231291479,0.7415143685738763,0.40644039593597653,0.5098039215686274,0.4980392156862745,0.5019607843137255,0.49019607843137253,0.49019607843137253,0.49019607843137253,0.5058823529411764,0.5137254901960784
140,13.993422031402588,0,0.8711923575554935,0.7665361341441796,0.39947782237886514,0.7422831706712136,0.5793111759575135,0.7665361341441796,0.39947782237886514,0.49411764705882355,0.4980392156862745,0.49411764705882355,0.49411764705882355,0.49019607843137253,0.4980392156862745,0.5019607843137255,0.5019607843137255
141,14.02340304851532,0,0.7987380558954282,0.8246301323544523,0.3829417016028318,0.7527265181156652,0.5726201112354546,0.8246301323544523,0.3829417016028318,0.48627450980392156,0.5058823529411764,0.4980392156862745,0.4980392156862745,0.49019607843137253,0.4980392156862745,0.4980392156862745,0.48627450980392156
142,14.02534008026123,0,0.7906875799136649,0.8174499850856047,0.4227589349793858,0.7625993932822211,0.5648685915668563,0.8174499850856047,0.4227589349793858,0.5215686274509804,0.49411764705882355,0.49019607843137253,0.49019607843137253,0.49411764705882355,0.4980392156862745,0.5058823529411764,0.47058823529411764
143,14.05337405204773,0,0.8218015840896956,0.7467363096590293,0.48020018799178626,0.7716510275693064,0.5579313747097664,0.7467363096590293,0.48020018799178626,0.5098039215686274,0.5098039215686274,0.49411764705882355,0.49411764705882355,0.5058823529411764,0.5058823529411764,0.5019607843137255,0.5098039215686274
144,14.083330035209654,0,0.8098346556361041,0.6836379592259059,0.5298085422989985,0.7799803630842024,0.5529017834265821,0.6836379592259059,0.5298085422989985,0.5058823529411764,0.4980392156862745,0.48627450980392156,0.49019607843137253,0.5019607843137255,0.5137254901960784,0.5098039215686274,0.5215686274509804
145,14.085264086723328,0,0.7900348311509536,0.664490879047418,0.5696257756755526,0.7872082747400051,0.5507512185288213,0.664490879047418,0.5696257756755526,0.4823529411764706,0.5058823529411764,0.5019607843137255,0.49411764705882355,0.4980392156862745,0.49411764705882355,0.49411764705882355,0.48627450980392156
146,14.11330509185791,0,0.7719756507234884,0.6705831310212916,0.5950826966902163,0.7932812676710184,0.5515965265277941,0.6705831310212916,0.5950826966902163,0.5098039215686274,0.5333333333333333,0.5058823529411764,0.5058823529411764,0.49411764705882355,0.5019607843137255,0.4980392156862745,0.5019607843137255
147,14.14343810081482,0,0.7513055108935688,0.6945169879284746,0.6013925330703431,0.7983594699904274,0.5547493191825859,0.6945169879284746,0.6013925330703431,0.4627450980392157,0.4549019607843137,0.49411764705882355,0.5019607843137255,0.5058823529411764,0.4980392156862745,0.4980392156862745,0.5098039215686274
148,14.145344018936155,0,0.7393385690718309,0.7234552059706063,0.6013925330703431,0.8027436605353515,0.5586401404617874,0.7234552059706063,0.6013925330703431,0.5098039215686274,0.49019607843137253,0.4980392156862745,0.4980392156862745,0.5019607843137255,0.5058823529411764,0.4980392156862745,0.5019607843137255
149,14.17335307598114,0,0.7167102007779727,0.7452132455515488,0.5874673806088619,0.806741030397115,0.5621484857053964,0.7452132455515488,0.5874673806088619,0.4980392156862745,0.49411764705882355,0.49019607843137253,0.49411764705882355,0.49019607843137253,0.48627450980392156,0.49019607843137253,0.4980392156862745
150,14.20334005355835,0,0.6966928007986665,0.7615317863773775,0.5896431801109075,0.8105211411441867,0.5642969963646662,0.7615317863773775,0.5896431801109075,0.49411764705882355,0.49019607843137253,0.5098039215686274,0.5215686274509804,0.4980392156862745,0.5019607843137255,0.5019607843137255,0.4980392156862745
151,14.20528507232666,0,0.6995213401513256,0.7386858292212172,0.6159704253824381,0.8148195794862407,0.5640253645426672,0.7386858292212172,0.6159704253824381,0.49411764705882355,0.49411764705882355,0.5058823529411764,0.5058823529411764,0.4980392156862745,0.49411764705882355,0.49411764705882355,0.49019607843137253
152,14.233238101005554,0,0.7104003643978456,0.6979982760438449,0.6383812137260919,0.8195297567362757,0.5621772806926625,0.6979982760438449,0.6383812137260919,0.5058823529411764,0.5215686274509804,0.5019607843137255,0.49019607843137253,0.4980392156862745,0.5019607843137255,0.5019607843137255,0.5098039215686274
153,14.263402104377748,0,0.7175805294908884,0.6657963587486452,0.6662315186490544,0.8242009702957114,0.5602170737430622,0.6657963587486452,0.6662315186490544,0.4980392156862745,0.5098039215686274,0.4980392156862745,0.5019607843137255,0.5019607843137255,0.4980392156862745,0.49411764705882355,0.4980392156862745
154,14.265545010566713,0,0.718450840379609,0.6483899181717936,0.6827676483371853,0.8284207326403701,0.5594022362056993,0.6483899181717936,0.6827676483371853,0.4980392156862745,0.5254901960784314,0.5176470588235295,0.5058823529411764,0.4980392156862745,0.49411764705882355,0.49019607843137253,0.49019607843137253
155,14.293302059173586,0,0.7177981005289953,0.6475195983709754,0.6916884352076692,0.8321331114458691,0.5603232524735748,0.6475195983709754,0.6916884352076692,0.47843137254901963,0.47058823529411764,0.49411764705882355,0.47843137254901963,0.5019607843137255,0.49019607843137253,0.49411764705882355,0.49019607843137253
156,14.323415040969849,0,0.7169277807281771,0.6581810426672909,0.7003916599521438,0.8354904322839665,0.5623663374745771,0.6581810426672909,0.7003916599521438,0.5098039215686274,0.5254901960784314,0.5019607843137255,0.4745098039215686,0.4980392156862745,0.5019607843137255,0.5058823529411764,0.5019607843137255
157,14.325254082679749,0,0.709530053509125,0.6627502305336841,0.6953873121853416,0.8386708479851931,0.5647320938803924,0.6627502305336841,0.6953873121853416,0.5058823529411764,0.42745098039215684,0.4823529411764706,0.5058823529411764,0.49411764705882355,0.5019607843137255,0.5019607843137255,0.5019607843137255
158,14.353302001953125,0,0.6990861891630141,0.6697128067644247,0.6953873121853416,0.841939627133879,0.5664741638736895,0.6697128067644247,0.6953873121853416,0.5176470588235295,0.49411764705882355,0.49019607843137253,0.5098039215686274,0.49019607843137253,0.4980392156862745,0.5098039215686274,0.5058823529411764
159,14.383992075920105,0,0.6975631116873872,0.6692776468640155,0.7021322995537802,0.8453543552485079,0.5672594934559804,0.6692776468640155,0.7021322995537802,0.5019607843137255,0.4980392156862745,0.49019607843137253,0.5019607843137255,0.5098039215686274,0.5019607843137255,0.5019607843137255,0.5019607843137255
160,14.385261058807373,0,0.7012619886650595,0.6538294347511024,0.7134464926128068,0.8486844095240735,0.5679155619750385,0.6538294347511024,0.7134464926128068,0.4980392156862745,0.5254901960784314,0.5176470588235295,0.49019607843137253,0.4980392156862745,0.4980392156862745,0.5058823529411764,0.5019607843137255
161,14.4135240316391,0,0.6969103718367735,0.6616623307826612,0.7132289126626024,0.8517840637970722,0.5689216353021731,0.6616623307826612,0.7132289126626024,0.47058823529411764,0.4666666666666667,0.47058823529411764,0.47843137254901963,0.49019607843137253,0.49411764705882355,0.48627450980392156,0.48627450980392156
162,14.443378090858461,0,0.6897302245679259,0.6829852193752922,0.7134464926128068,0.854793157790559,0.5698164232668844,0.6829852193752922,0.7134464926128068,0.5215686274509804,0.5490196078431373,0.5098039215686274,0.48627450980392156,0.5176470588235295,0.5058823529411764,0.5058823529411764,0.5137254901960784
163,14.445369005203247,0,0.6901653755562374,0.6827676483371853,0.7169277807281771,0.8576202845757525,0.5705231659727559,0.6827676483371853,0.7169277807281771,0.5019607843137255,0.5058823529411764,0.5098039215686274,0.5098039215686274,0.49411764705882355,0.49411764705882355,0.49411764705882355,0.5019607843137255
164,14.473305106163025,0,0.6864665074906625,0.6897302245679259,0.7358572809564606,0.8601023928714625,0.5717762425402401,0.6897302245679259,0.7358572809564606,0.48627450980392156,0.45098039215686275,0.49411764705882355,0.5215686274509804,0.4980392156862745,0.5098039215686274,0.5019607843137255,0.49019607843137253
165,14.503306031227114,0,0.6697128067644247,0.6718886151785676,0.7384682581831102,0.862431881496195,0.573277115524758,0.6718886151785676,0.7384682581831102,0.48627450980392156,0.403921568627451,0.5098039215686274,0.48627450980392156,0.5019607843137255,0.5058823529411764,0.5058823529411764,0.5019607843137255
166,14.505330085754395,0,0.6744995834931197,0.6684073270631973,0.6984334359442541,0.8644587152872685,0.5747421440528281,0.6684073270631973,0.6984334359442541,0.4745098039215686,0.4588235294117647,0.45098039215686275,0.49411764705882355,0.4980392156862745,0.49411764705882355,0.48627450980392156,0.4823529411764706
167,14.533315062522886,0,0.6581810426672909,0.6995213401513256,0.6919060240699713,0.8665069693048643,0.574853313557983,0.6995213401513256,0.6919060240699713,0.5176470588235295,0.5764705882352941,0.5333333333333333,0.5058823529411764,0.49019607843137253,0.5019607843137255,0.5058823529411764,0.49019607843137253
168,14.56354308128357,0,0.6627502305336841,0.7093124646468228,0.7288947047257199,0.8685361068731611,0.5739799369076963,0.7093124646468228,0.7288947047257199,0.5019607843137255,0.4980392156862745,0.47843137254901963,0.49019607843137253,0.48627450980392156,0.49019607843137253,0.4980392156862745,0.5137254901960784
169,14.565367102622984,0,0.7038729480675141,0.6762402230947561,0.7552219499972506,0.8699842603444722,0.5742265747520454,0.6762402230947561,0.7552219499972506,0.5058823529411764,0.5176470588235295,0.49019607843137253,0.5098039215686274,0.5098039215686274,0.4980392156862745,0.49411764705882355,0.5058823529411764
170,14.593416094779966,0,0.7302001933390447,0.6692776468640155,0.7338990703167172,0.8707766349398963,0.5755603280828304,0.6692776468640155,0.7338990703167172,0.5019607843137255,0.5137254901960784,0.5019607843137255,0.49411764705882355,0.4980392156862745,0.4980392156862745,0.49411764705882355,0.4980392156862745
171,14.623297095298767,0,0.7125761638998911,0.692776334958692,0.7162750408775634,0.871279277243146,0.5767530519255344,0.692776334958692,0.7162750408775634,0.49019607843137253,0.396078431372549,0.4549019607843137,0.49019607843137253,0.5019607843137255,0.49019607843137253,0.4980392156862745,0.49411764705882355
172,14.625343084335327,0,0.720191488893343,0.7106179532601478,0.7147519634019365,0.8717494795112213,0.5767552710378306,0.7106179532601478,0.7147519634019365,0.4980392156862745,0.5372549019607843,0.5137254901960784,0.49411764705882355,0.49019607843137253,0.4980392156862745,0.4980392156862745,0.4980392156862745
173,14.653459072113035,0,0.7367276052133276,0.7016971441094199,0.714316812413625,0.872453490659186,0.5750136956659488,0.7016971441094199,0.714316812413625,0.5019607843137255,0.49019607843137253,0.49019607843137253,0.5176470588235295,0.5058823529411764,0.4980392156862745,0.5058823529411764,0.5058823529411764
174,14.683342099189758,0,0.7513055108935688,0.6758050631943471,0.7241079279970247,0.8728787759554816,0.5728351289576062,0.6758050631943471,0.7241079279970247,0.5058823529411764,0.5176470588235295,0.5254901960784314,0.49019607843137253,0.49019607843137253,0.5019607843137255,0.5019607843137255,0.5019607843137255
175,14.685375094413756,0,0.7532637215333121,0.6364229941742509,0.726066160917012,0.87287326827918,0.5709099465514771,0.6364229941742509,0.726066160917012,0.4823529411764706,0.49411764705882355,0.49411764705882355,0.4980392156862745,0.4980392156862745,0.5058823529411764,0.49411764705882355,0.48627450980392156
176,14.713425040245054,0,0.7641427502358809,0.6412097619908484,0.720191488893343,0.8720400584526654,0.5706605103084895,0.6412097619908484,0.720191488893343,0.5058823529411764,0.5607843137254902,0.5215686274509804,0.5058823529411764,0.5019607843137255,0.49411764705882355,0.5058823529411764,0.5058823529411764
177,14.74327802658081,0,0.778067902697362,0.7003916599521438,0.7299826044767427,0.8705607616563774,0.5719161491040268,0.7003916599521438,0.7299826044767427,0.5019607843137255,0.5098039215686274,0.49019607843137253,0.49411764705882355,0.49411764705882355,0.49411764705882355,0.49411764705882355,0.49411764705882355
178,14.745328068733215,0,0.7861183920472719,0.7093124646468228,0.7367276052133276,0.8684801210761928,0.5747410300406312,0.7093124646468228,0.7367276052133276,0.5098039215686274,0.43529411764705883,0.4196078431372549,0.5098039215686274,0.5098039215686274,0.4980392156862745,0.4980392156862745,0.5098039215686274
179,14.773308038711548,0,0.763925174741725,0.6919060240699713,0.6858137587279514,0.8660318074544883,0.5783310279222255,0.6919060240699713,0.6858137587279514,0.5058823529411764,0.5098039215686274,0.5019607843137255,0.47843137254901963,0.49019607843137253,0.4980392156862745,0.5019607843137255,0.5058823529411764
180,14.80339801311493,0,0.7560922697980688,0.6882071470922989,0.6784160315088992,0.8637187126332458,0.5811592553514695,0.6882071470922989,0.6784160315088992,0.4980392156862745,0.5294117647058824,0.5019607843137255,0.5058823529411764,0.4980392156862745,0.5019607843137255,0.4980392156862745,0.5019607843137255
181,14.805335998535154,0,0.7515230819316757,0.6721061951287722,0.6988686003007119,0.8613279845300245,0.5840430630772421,0.6721061951287722,0.6988686003007119,0.4980392156862745,0.5176470588235295,0.592156862745098,0.5215686274509804,0.5019607843137255,0.5019607843137255,0.5019607843137255,0.4980392156862745
182,14.83326005935669,0,0.7754569388388587,0.6977807005496892,0.6988686003007119,0.8585381637852815,0.587473739390482,0.6977807005496892,0.6988686003007119,0.5019607843137255,0.4823529411764706,0.45098039215686275,0.48627450980392156,0.49411764705882355,0.5019607843137255,0.4980392156862745,0.5019607843137255
183,14.863407015800474,0,0.7628372749907024,0.6949521478288838,0.720191488893343,0.8562537792863779,0.5895137675420158,0.6949521478288838,0.720191488893343,0.49019607843137253,0.5411764705882353,0.5058823529411764,0.48627450980392156,0.49411764705882355,0.49019607843137253,0.48627450980392156,0.49411764705882355
184,14.865308046340942,0,0.7558746987599618,0.6686249070134018,0.726066160917012,0.8542673752259551,0.5902750478289996,0.6686249070134018,0.726066160917012,0.49411764705882355,0.5215686274509804,0.5098039215686274,0.5019607843137255,0.49411764705882355,0.5058823529411764,0.49411764705882355,0.5058823529411764
185,14.893264055252075,0,0.7497824334179418,0.6296779978937148,0.7354221210560514,0.8526337877403937,0.5900025158851455,0.6296779978937148,0.7354221210560514,0.48627450980392156,0.403921568627451,0.47058823529411764,0.48627450980392156,0.49411764705882355,0.49411764705882355,0.49411764705882355,0.49019607843137253
186,14.92333710193634,0,0.7404264688228536,0.6061793008869408,0.7271540651240835,0.8509882134835935,0.5896987915997776,0.6061793008869408,0.7271540651240835,0.5058823529411764,0.5294117647058824,0.5333333333333333,0.5137254901960784,0.5058823529411764,0.5019607843137255,0.5058823529411764,0.5019607843137255
187,14.925319075584412,0,0.7325935817033923,0.6000870444570184,0.7064839163820662,0.8492433584598041,0.589597670484639,0.6000870444570184,0.7064839163820662,0.5098039215686274,0.5490196078431373,0.5215686274509804,0.4980392156862745,0.5058823529411764,0.5058823529411764,0.5019607843137255,0.4980392156862745
188,14.9533931016922,0,0.7288947047257199,0.6109660731595872,0.7049608522745855,0.8474389260637234,0.5897849493030872,0.6109660731595872,0.7049608522745855,0.5098039215686274,0.4823529411764706,0.47843137254901963,0.5019607843137255,0.49411764705882355,0.5098039215686274,0.4980392156862745,0.49411764705882355
189,14.983550071716307,0,0.742602268324899,0.6114012330599964,0.7082245648958001,0.845599188393098,0.5903774255498965,0.6114012330599964,0.7082245648958001,0.48627450980392156,0.5176470588235295,0.5098039215686274,0.5019607843137255,0.5019607843137255,0.4980392156862745,0.5019607843137255,0.5058823529411764
190,14.98536205291748,0,0.7404264688228536,0.6061793008869408,0.7040905280177185,0.8438392585562597,0.5910600699439241,0.6061793008869408,0.7040905280177185,0.4980392156862745,0.5019607843137255,0.5686274509803921,0.48627450980392156,0.49411764705882355,0.4980392156862745,0.5019607843137255,0.5019607843137255
191,15.013397097587585,0,0.7256310054726517,0.5907310798619302,0.7204090688435475,0.8424700751815638,0.591283812609602,0.5907310798619302,0.7204090688435475,0.5019607843137255,0.49411764705882355,0.49019607843137253,0.49411764705882355,0.49411764705882355,0.5019607843137255,0.4980392156862745,0.5019607843137255
192,15.043350100517273,0,0.7182332515173068,0.5696257756755526,0.718450840379609,0.8411288044964741,0.5912808805294998,0.5696257756755526,0.718450840379609,0.5058823529411764,0.47058823529411764,0.4666666666666667,0.5019607843137255,0.45098039215686275,0.4666666666666667,0.5058823529411764,0.5098039215686274
193,15.045347094535828,0,0.7265013163613724,0.6151000966695224,0.7338990703167172,0.8401401855124407,0.5912776142457384,0.6151000966695224,0.7338990703167172,0.49411764705882355,0.5019607843137255,0.49411764705882355,0.5019607843137255,0.5137254901960784,0.5137254901960784,0.4980392156862745,0.5294117647058824
194,15.073401093482973,0,0.7391209802095287,0.6153176855318244,0.7384682581831102,0.8398677872500502,0.5901079459994619,0.6153176855318244,0.7384682581831102,0.5019607843137255,0.4980392156862745,0.5058823529411764,0.49411764705882355,0.49019607843137253,0.4980392156862745,0.5019607843137255,0.47843137254901963
195,15.103349089622498,0,0.7619669462777867,0.5913838286246414,0.7238903569589178,0.8398893723503776,0.5882293872317982,0.5913838286246414,0.7238903569589178,0.5058823529411764,0.4980392156862745,0.47058823529411764,0.5058823529411764,0.5333333333333333,0.5098039215686274,0.49411764705882355,0.49019607843137253
196,15.105269074440002,0,0.7808964375939724,0.5785465759141829,0.7180156804791998,0.8401269064870535,0.5859786013407537,0.5785465759141829,0.7180156804791998,0.49019607843137253,0.49019607843137253,0.5019607843137255,0.4980392156862745,0.5137254901960784,0.5058823529411764,0.49411764705882355,0.5098039215686274
197,15.13325810432434,0,0.7819843507131415,0.5696257756755526,0.7047432767804298,0.8403011825551393,0.5838246186535727,0.5696257756755526,0.7047432767804298,0.5058823529411764,0.5098039215686274,0.49019607843137253,0.4980392156862745,0.4823529411764706,0.48627450980392156,0.5058823529411764,0.49019607843137253
198,15.194315075874329,0,0.7813316153185766,0.5687554514186856,0.7062663364318617,0.840357707534011,0.5821390335347081,0.5687554514186856,0.7062663364318617,0.5098039215686274,0.4980392156862745,0.5137254901960784,0.4980392156862745,0.4823529411764706,0.4627450980392157,0.4470588235294118,0.4196078431372549
199,15.196613073348999,0,0.7758920987392679,0.5700609400320105,0.7164926297398656,0.8404191920951833,0.5809717670987281,0.5700609400320105,0.7164926297398656,0.49411764705882355,0.4980392156862745,0.5098039215686274,0.49019607843137253,0.5137254901960784,0.5137254901960784,0.5019607843137255,0.49411764705882355
200,15.223363041877748,0,0.7715404863670307,0.5876849605590665,0.7452132455515488,0.8409537709000942,0.5790649213333602,0.5876849605590665,0.7452132455515488,0.5254901960784314,0.49411764705882355,0.4666666666666667,0.4980392156862745,0.5058823529411764,0.5058823529411764,0.43137254901960786,0.596078431372549
201,15.225914001464846,0,0.8022193440107985,0.5824630239299623,0.7302001933390447,0.841464656893601,0.5775400302458767,0.5824630239299623,0.7302001933390447,0.5176470588235295,0.5137254901960784,0.5294117647058824,0.5058823529411764,0.4666666666666667,0.47058823529411764,0.49019607843137253,0.5764705882352941
202,15.25410008430481,0,0.8222367439901047,0.5820278640295532,0.7210618176062586,0.841887647324771,0.5761847319192033,0.5820278640295532,0.7210618176062586,0.5176470588235295,0.5137254901960784,0.5294117647058824,0.49411764705882355,0.4823529411764706,0.48627450980392156,0.4980392156862745,0.611764705882353
203,15.283607006072998,0,0.8137511081079322,0.5863794808578392,0.7160574520152614,0.8423447265291667,0.5751767870515777,0.5863794808578392,0.7160574520152614,0.5686274509803921,0.5176470588235295,0.5058823529411764,0.5058823529411764,0.5450980392156862,0.5294117647058824,0.5294117647058824,0.7294117647058823
204,15.286033034324644,0,0.793951279166733,0.5902959244175698,0.7138816525132159,0.8429349747515819,0.5745216052862284,0.5902959244175698,0.7138816525132159,0.5254901960784314,0.4980392156862745,0.4823529411764706,0.5019607843137255,0.5019607843137255,0.5019607843137255,0.4196078431372549,0.5725490196078431
205,15.313924074172974,0,0.7919930551588433,0.5863794808578392,0.7125761638998911,0.8435129688398312,0.573843697672062,0.5863794808578392,0.7125761638998911,0.49411764705882355,0.4980392156862745,0.4980392156862745,0.4980392156862745,0.48627450980392156,0.4980392156862745,0.4470588235294118,0.4549019607843137
206,15.343306064605713,0,0.8035248326241234,0.5809399642785305,0.7019147240596244,0.843919151054974,0.5732720044367986,0.5809399642785305,0.7019147240596244,0.4745098039215686,0.4980392156862745,0.4666666666666667,0.4980392156862745,0.5215686274509804,0.5294117647058824,0.6196078431372549,0.5607843137254902
207,15.345968008041382,0,0.7904699910513627,0.576153192005884,0.7045256879181278,0.8442673556193404,0.5730256384114257,0.576153192005884,0.7045256879181278,0.5058823529411764,0.49411764705882355,0.4980392156862745,0.4980392156862745,0.5137254901960784,0.5019607843137255,0.45098039215686275,0.47843137254901963
208,15.373962998390198,0,0.7656658143433615,0.5778938360635691,0.7030026282666959,0.844665147094616,0.5726770684510587,0.5778938360635691,0.7030026282666959,0.4823529411764706,0.5137254901960784,0.5058823529411764,0.5019607843137255,0.4823529411764706,0.48627450980392156,0.5294117647058824,0.4666666666666667
209,15.403802990913393,0,0.7628372749907024,0.5704960999324196,0.7230200282460021,0.8450944205545765,0.572131362892325,0.5704960999324196,0.7230200282460021,0.4980392156862745,0.47058823529411764,0.4470588235294118,0.4470588235294118,0.44313725490196076,0.49019607843137253,0.4588235294117647,0.49411764705882355
210,15.406038999557495,0,0.7745866145819917,0.5541775591065907,0.7280243938369992,0.845429760506093,0.5715900019811592,0.5541775591065907,0.7280243938369992,0.5137254901960784,0.49019607843137253,0.5058823529411764,0.49411764705882355,0.5098039215686274,0.49411764705882355,0.41568627450980394,0.48627450980392156
211,15.433881044387816,0,0.7774151494786021,0.5607049754369222,0.7491296935673282,0.8457147025458208,0.5709875129927242,0.5607049754369222,0.7491296935673282,0.38823529411764707,0.5058823529411764,0.5215686274509804,0.4980392156862745,0.49019607843137253,0.4588235294117647,0.48627450980392156,0.23137254901960785
212,15.4634610414505,0,0.7606614621205106,0.5624456194946074,0.7436901814440682,0.8460240414526611,0.5705824581579246,0.5624456194946074,0.7436901814440682,0.5098039215686274,0.5058823529411764,0.5176470588235295,0.5058823529411764,0.5098039215686274,0.5098039215686274,0.4980392156862745,0.5254901960784314
213,15.465870022773744,0,0.7354221210560514,0.5689730358249389,0.7419495462984805,0.8465274412842047,0.5698442869399537,0.5689730358249389,0.7419495462984805,0.5098039215686274,0.49019607843137253,0.4823529411764706,0.5176470588235295,0.5254901960784314,0.5450980392156862,0.6901960784313725,0.6352941176470588
214,15.493909001350405,0,0.7399913133784932,0.5667972318668446,0.7536988858897699,0.8471091784534356,0.5685145663333214,0.5667972318668446,0.7536988858897699,0.5333333333333333,0.5137254901960784,0.49019607843137253,0.5019607843137255,0.5098039215686274,0.5254901960784314,0.34509803921568627,0.6235294117647059
215,15.523413062095642,0,0.7602262977640528,0.5537423992061816,0.7754569388388587,0.8476319175367176,0.56731948078476,0.5537423992061816,0.7754569388388587,0.5137254901960784,0.5098039215686274,0.5019607843137255,0.5176470588235295,0.4980392156862745,0.47058823529411764,0.4745098039215686,0.4980392156862745
216,15.552990078926086,0,0.7502175977743996,0.5426457950094571,0.774369039087836,0.8481062505620192,0.5663905372060912,0.5426457950094571,0.774369039087836,0.5019607843137255,0.4823529411764706,0.4823529411764706,0.4980392156862745,0.5098039215686274,0.5137254901960784,0.49019607843137253,0.4549019607843137
217,15.554719090461733,0,0.7384682581831102,0.551349010841834,0.7674064628570955,0.8484350891383543,0.5655208769004936,0.551349010841834,0.7674064628570955,0.49411764705882355,0.4980392156862745,0.5176470588235295,0.49019607843137253,0.49019607843137253,0.4823529411764706,0.4980392156862745,0.49019607843137253
218,15.58327305316925,0,0.7406440576851556,0.5509138509414249,0.765448234393157,0.8486366807855087,0.5647079554641095,0.5509138509414249,0.765448234393157,0.4980392156862745,0.5098039215686274,0.4980392156862745,0.5058823529411764,0.5098039215686274,0.5058823529411764,0.45098039215686275,0.403921568627451
219,15.613153100013733,0,0.7367276052133276,0.5496083712401977,0.7754569388388587,0.8487722204214834,0.5640006691202859,0.5496083712401977,0.7754569388388587,0.5098039215686274,0.5019607843137255,0.5137254901960784,0.4980392156862745,0.5176470588235295,0.5058823529411764,0.5372549019607843,0.4549019607843137
220,15.61553704738617,0,0.7214969685945701,0.5539599791563862,0.7717580618611865,0.8489087359321426,0.5634568217338967,0.5539599791563862,0.7717580618611865,0.5137254901960784,0.49019607843137253,0.5058823529411764,0.49411764705882355,0.48627450980392156,0.49019607843137253,0.5137254901960784,0.5764705882352941
221,15.643312096595766,0,0.7145343923638295,0.5452567588679604,0.7767624274521836,0.8490399843931347,0.5626940041100812,0.5452567588679604,0.7767624274521836,0.4980392156862745,0.48627450980392156,0.47843137254901963,0.4823529411764706,0.48627450980392156,0.49019607843137253,0.5411764705882353,0.5098039215686274
222,15.673124074935913,0,0.7158398765211057,0.53633595862933,0.7835074148206221,0.8490855252117447,0.561658137640752,0.53633595862933,0.7835074148206221,0.5058823529411764,0.5137254901960784,0.5294117647058824,0.5137254901960784,0.49411764705882355,0.4980392156862745,0.4823529411764706,0.47843137254901963
223,15.674735069274902,0,0.7162750408775634,0.531766770762937,0.7869887029359924,0.8490449127830938,0.5606825927038617,0.531766770762937,0.7869887029359924,0.45098039215686275,0.48627450980392156,0.5098039215686274,0.4980392156862745,0.49411764705882355,0.5019607843137255,0.5019607843137255,0.3764705882352941
224,15.703302025794985,0,0.7149695522642388,0.5302437021994076,0.8065709430148895,0.84892307995319,0.5597544824063162,0.5302437021994076,0.8065709430148895,0.5176470588235295,0.4980392156862745,0.4980392156862745,0.5137254901960784,0.4980392156862745,0.5137254901960784,0.48627450980392156,0.596078431372549
225,15.73314905166626,0,0.7212793886443657,0.5304612821496121,0.8244125613163453,0.8486972251203867,0.5592969575970418,0.5304612821496121,0.8244125613163453,0.5058823529411764,0.5019607843137255,0.49019607843137253,0.5176470588235295,0.5058823529411764,0.49019607843137253,0.5607843137254902,0.5843137254901961
226,15.734711050987244,0,0.7032201993048028,0.5341601546712358,0.8265883608183907,0.8485788724645862,0.5591857167951063,0.5341601546712358,0.8265883608183907,0.5058823529411764,0.5019607843137255,0.49019607843137253,0.49411764705882355,0.49411764705882355,0.49019607843137253,0.43529411764705883,0.5058823529411764
227,15.763316035270693,0,0.6953873121853416,0.5395996667944958,0.821148844239082,0.8485267366937703,0.5590503063845464,0.5395996667944958,0.821148844239082,0.49411764705882355,0.5137254901960784,0.4980392156862745,0.49019607843137253,0.48627450980392156,0.5058823529411764,0.4823529411764706,0.5372549019607843
228,15.79313099384308,0,0.7069190762824753,0.5391645068940868,0.8163620719664355,0.8484661656225995,0.5586679551183201,0.5391645068940868,0.8163620719664355,0.49411764705882355,0.5019607843137255,0.5019607843137255,0.49019607843137253,0.4980392156862745,0.5058823529411764,0.5176470588235295,0.4549019607843137
229,15.794631004333494,0,0.7138816525132159,0.5322019306633461,0.8172323962233025,0.8483325420876034,0.5582333789603022,0.5322019306633461,0.8172323962233025,0.5019607843137255,0.4745098039215686,0.5019607843137255,0.49019607843137253,0.4666666666666667,0.4588235294117647,0.4588235294117647,0.23137254901960785
230,15.823411107063293,0,0.7021322995537802,0.5298085422989985,0.8161444964722797,0.848041339299329,0.5583169967158029,0.5298085422989985,0.8161444964722797,0.48627450980392156,0.4745098039215686,0.4666666666666667,0.49411764705882355,0.5019607843137255,0.5137254901960784,0.611764705882353,0.5098039215686274
231,15.852991104125975,0,0.6882071470922989,0.5393820868442912,0.8161444964722797,0.8477101211929413,0.5588053484705905,0.5393820868442912,0.8161444964722797,0.5411764705882353,0.5098039215686274,0.5019607843137255,0.4980392156862745,0.5215686274509804,0.5215686274509804,0.6980392156862745,0.45098039215686275
232,15.854675054550171,0,0.6866840874408671,0.5441688546608888,0.8276762605694133,0.8473212640954848,0.5593472485636595,0.5441688546608888,0.8276762605694133,0.5137254901960784,0.5176470588235295,0.5176470588235295,0.5058823529411764,0.4588235294117647,0.4666666666666667,0.2627450980392157,0.6509803921568628
233,15.88317608833313,0,0.6860313475902534,0.5448215989675512,0.8281114204698226,0.8467321343413152,0.5602199790868718,0.5448215989675512,0.8281114204698226,0.5019607843137255,0.48627450980392156,0.4980392156862745,0.49411764705882355,0.5176470588235295,0.4980392156862745,0.4745098039215686,0.5490196078431373
234,15.913045048713686,0,0.671235875327954,0.5600522355863087,0.8252828722050659,0.8461482315323736,0.5613589897174892,0.5600522355863087,0.8252828722050659,0.47058823529411764,0.4980392156862745,0.4980392156862745,0.49411764705882355,0.5058823529411764,0.5254901960784314,0.5019607843137255,0.3411764705882353
235,15.973507046699526,0,0.6601392666751807,0.5670148118170493,0.8294169001710497,0.8455916264783052,0.5624235754212548,0.5670148118170493,0.8294169001710497,0.5137254901960784,0.49411764705882355,0.5019607843137255,0.5098039215686274,0.5019607843137255,0.5176470588235295,0.5215686274509804,0.5450980392156862
236,15.97552502155304,0,0.6444734701560143,0.5765883519062932,0.8313751375470859,0.8451757657251956,0.5634006220465865,0.5765883519062932,0.8313751375470859,0.5176470588235295,0.5098039215686274,0.5058823529411764,0.5294117647058824,0.5176470588235295,0.49411764705882355,0.4823529411764706,0.4588235294117647
237,16.003053069114685,0,0.6357702498675886,0.5835509281370338,0.8383377137778265,0.8448842153651156,0.5645450289522858,0.5835509281370338,0.8383377137778265,0.5098039215686274,0.4980392156862745,0.5019607843137255,0.4980392156862745,0.49411764705882355,0.49019607843137253,0.4745098039215686,0.4627450980392157
238,16.003481030464172,0,0.6294604179435103,0.569843355625757,0.8407310887740277,0.8448773352257875,0.5662022557766657,0.569843355625757,0.8407310887740277,0.49411764705882355,0.5137254901960784,0.49411764705882355,0.49411764705882355,0.4980392156862745,0.49411764705882355,0.5215686274509804,0.5176470588235295
239,16.032918095588688,0,0.6261967097783445,0.577023516262751,0.8448651122839629,0.8448590342334165,0.566884699648498,0.577023516262751,0.8448651122839629,0.47058823529411764,0.4980392156862745,0.48627450980392156,0.48627450980392156,0.5058823529411764,0.5058823529411764,0.6039215686274509,0.43137254901960786
240,16.034594058990482,0,0.6294604179435103,0.5735422281473808,0.8420365729313039,0.8448189921790104,0.5675338746600814,0.5735422281473808,0.8420365729313039,0.5137254901960784,0.5137254901960784,0.5058823529411764,0.49411764705882355,0.5058823529411764,0.48627450980392156,0.40784313725490196,0.592156862745098
241,16.063255071640015,0,0.6207571931990357,0.5757180276494261,0.8422541528815083,0.8447673465735612,0.5681874076873792,0.5757180276494261,0.8422541528815083,0.5058823529411764,0.4745098039215686,0.5019607843137255,0.47058823529411764,0.4745098039215686,0.49019607843137253,0.47058823529411764,0.43529411764705883
242,16.092936992645267,0,0.6211923620115424,0.5848564122943098,0.8481288249051775,0.8445880975550283,0.5691697169063293,0.5848564122943098,0.8481288249051775,0.5254901960784314,0.4980392156862745,0.4823529411764706,0.5019607843137255,0.5019607843137255,0.48627450980392156,0.4117647058823529,0.4980392156862745
243,16.09467101097107,0,0.615535265482029,0.6031331726719795,0.8455178610466741,0.844363209684812,0.5706363674361579,0.6031331726719795,0.8455178610466741,0.49019607843137253,0.4980392156862745,0.4980392156862745,0.4980392156862745,0.4980392156862745,0.49411764705882355,0.5450980392156862,0.4470588235294118
244,16.123438000679016,0,0.6140121969184997,0.6094430090521066,0.8485639892616352,0.8442564382998106,0.5719696885302106,0.6094430090521066,0.8485639892616352,0.5058823529411764,0.5019607843137255,0.49411764705882355,0.5058823529411764,0.5019607843137255,0.5098039215686274,0.6235294117647059,0.6
245,16.152881026268005,0,0.6190165535973994,0.6057441409865316,0.8513925330703432,0.8440963101866256,0.5731401454971226,0.6057441409865316,0.8513925330703432,0.5607843137254902,0.49411764705882355,0.4980392156862745,0.49411764705882355,0.49411764705882355,0.5019607843137255,0.4588235294117647,0.5803921568627451
246,16.154615998268127,0,0.6207571931990357,0.6029155927217751,0.8472585006483105,0.8438228736648674,0.574418064536598,0.6029155927217751,0.8472585006483105,0.5137254901960784,0.5058823529411764,0.4980392156862745,0.5176470588235295,0.5058823529411764,0.5058823529411764,0.5058823529411764,0.5176470588235295
247,16.18340802192688,0,0.6153176855318244,0.6077023649944214,0.8400783355552677,0.843560024715029,0.5758079640821079,0.6077023649944214,0.8400783355552677,0.5254901960784314,0.5019607843137255,0.5019607843137255,0.4980392156862745,0.49019607843137253,0.48627450980392156,0.5529411764705883,0.7725490196078432
248,16.213243007659912,0,0.6203220332986266,0.608790269201493,0.8291993202208453,0.8432698913784635,0.5772439748204724,0.608790269201493,0.8291993202208453,0.5019607843137255,0.5058823529411764,0.4980392156862745,0.5019607843137255,0.4980392156862745,0.48627450980392156,0.4980392156862745,0.5882352941176471
249,16.214684009552002,0,0.6329417060588806,0.6083551093010838,0.828546571458134,0.8429821197477555,0.5786074410845736,0.6083551093010838,0.828546571458134,0.4745098039215686,0.5019607843137255,0.49019607843137253,0.49411764705882355,0.47843137254901963,0.49019607843137253,0.5215686274509804,0.4470588235294118
250,16.243447065353394,0,0.637293313975069,0.6122715573168633,0.8372498006586574,0.8425954505702539,0.5801831311282367,0.6122715573168633,0.8372498006586574,0.4823529411764706,0.5019607843137255,0.5019607843137255,0.5098039215686274,0.5019607843137255,0.49411764705882355,0.4666666666666667,0.43137254901960786
251,16.273059010505676,0,0.6344647657103124,0.6127067172172723,0.8383377137778265,0.8421334340638015,0.5820327523150732,0.6127067172172723,0.8383377137778265,0.47843137254901963,0.4980392156862745,0.5058823529411764,0.49019607843137253,0.49411764705882355,0.4980392156862745,0.4745098039215686,0.39215686274509803
252,16.274691104888912,0,0.6301131577941238,0.6307658976447376,0.8305048043781214,0.8416269461904481,0.5840487980120318,0.6307658976447376,0.8305048043781214,0.5450980392156862,0.5019607843137255,0.5058823529411764,0.5058823529411764,0.5215686274509804,0.5019607843137255,0.4588235294117647,0.5764705882352941
253,16.30338406562805,0,0.6290252491310037,0.6464316897078551,0.8311575486847838,0.8412422376744131,0.5861146578783878,0.6464316897078551,0.8311575486847838,0.4823529411764706,0.48627450980392156,0.5019607843137255,0.4980392156862745,0.49411764705882355,0.5058823529411764,0.5176470588235295,0.49019607843137253
254,16.3330260515213,0,0.6320713818020136,0.6462141142136995,0.8231070727030204,0.8410075108484735,0.5879403723634784,0.6462141142136995,0.8231070727030204,0.4627450980392157,0.48627450980392156,0.49019607843137253,0.4980392156862745,0.5058823529411764,0.5294117647058824,0.44313725490196076,0.22745098039215686
255,16.334672093391422,0,0.6307658976447376,0.6527415305440308,0.8130983638012698,0.8408380027525905,0.5895974075777605,0.6527415305440308,0.8130983638012698,0.49019607843137253,0.48627450980392156,0.5058823529411764,0.4980392156862745,0.5019607843137255,0.49411764705882355,0.4666666666666667,0.5411764705882353
256,16.36329209804535,0,0.6255439610156334,0.6538294347511024,0.8074412717278052,0.8408081917862008,0.5909836843556059,0.6538294347511024,0.8074412717278052,0.5215686274509804,0.5215686274509804,0.5019607843137255,0.5058823529411764,0.4980392156862745,0.5019607843137255,0.5058823529411764,0.49019607843137253
257,16.39330005645752,0,0.62597912982814,0.6533942659385958,0.8109225598431755,0.8408307171128225,0.592314813073655,0.6533942659385958,0.8109225598431755,0.4823529411764706,0.49411764705882355,0.5019607843137255,0.5019607843137255,0.5098039215686274,0.4980392156862745,0.5058823529411764,0.49019607843137253
258,16.395487070083618,0,0.630548317694533,0.6503481466357321,0.8117928796439937,0.8408348567821463,0.5938393966937722,0.6503481466357321,0.8117928796439937,0.4980392156862745,0.4980392156862745,0.4980392156862745,0.5019607843137255,0.4980392156862745,0.49019607843137253,0.5843137254901961,0.5882352941176471
259,16.423579096794132,0,0.6283725137364387,0.6499129778232255,0.8080940204905165,0.8408592402811125,0.5955247500980998,0.6499129778232255,0.8080940204905165,0.5098039215686274,0.5137254901960784,0.5058823529411764,0.5019607843137255,0.4980392156862745,0.4980392156862745,0.49019607843137253,0.5019607843137255
260,16.453435063362118,0,0.6294604179435103,0.6562228186594012,0.8052654544015646,0.840996397462797,0.5970755130048446,0.6562228186594012,0.8052654544015646,0.4980392156862745,0.4980392156862745,0.49411764705882355,0.5019607843137255,0.5058823529411764,0.5098039215686274,0.5137254901960784,0.5686274509803921
261,16.45539104938507,0,0.6364229941742509,0.6518712062871639,0.7917754796646876,0.8413221078928834,0.5982176250454183,0.6518712062871639,0.7917754796646876,0.47843137254901963,0.4980392156862745,0.4823529411764706,0.4980392156862745,0.49019607843137253,0.49019607843137253,0.5058823529411764,0.4627450980392157
262,16.483379006385807,0,0.6370757340248645,0.6529591104942355,0.7898172512007492,0.8418276911883329,0.598866332171879,0.6529591104942355,0.7898172512007492,0.4980392156862745,0.49411764705882355,0.4980392156862745,0.4980392156862745,0.5058823529411764,0.4980392156862745,0.47058823529411764,0.48627450980392156
263,16.513468027114868,0,0.6425152461481245,0.6433855704049914,0.78328982595832,0.8423083874513032,0.5994169750326696,0.6433855704049914,0.78328982595832,0.5098039215686274,0.5058823529411764,0.49411764705882355,0.49411764705882355,0.49411764705882355,0.5019607843137255,0.48627450980392156,0.49411764705882355
264,16.515691995620728,0,0.6566579785598103,0.6418625018414622,0.7876414427866061,0.8426187735296086,0.6002814796898197,0.6418625018414622,0.7876414427866061,0.4980392156862745,0.48627450980392156,0.49411764705882355,0.4980392156862745,0.49019607843137253,0.49019607843137253,0.5333333333333333,0.21568627450980393
265,16.543301105499268,0,0.6536118548008978,0.65317669044444,0.7643603301860854,0.8428069970304,0.6018853943465039,0.65317669044444,0.7643603301860854,0.47058823529411764,0.49411764705882355,0.48627450980392156,0.48627450980392156,0.49411764705882355,0.49019607843137253,0.49019607843137253,0.5764705882352941
266,16.573469042778015,0,0.641427341941053,0.6755874832441425,0.7563098497482733,0.8434036619630694,0.6029454883530916,0.6755874832441425,0.7563098497482733,0.5254901960784314,0.5019607843137255,0.5019607843137255,0.5098039215686274,0.5058823529411764,0.5019607843137255,0.4666666666666667,0.43529411764705883
267,16.575385093688965,0,0.6618799107328659,0.6671018429059213,0.778938226954229,0.8443122057503882,0.6025687962688255,0.6671018429059213,0.778938226954229,0.5058823529411764,0.5058823529411764,0.49411764705882355,0.49411764705882355,0.49019607843137253,0.49411764705882355,0.5333333333333333,0.6235294117647059
268,16.60355806350708,0,0.6701479711208824,0.6557876543029434,0.7795909668048427,0.8451007035833672,0.6021607113208503,0.6557876543029434,0.7795909668048427,0.5215686274509804,0.47843137254901963,0.4980392156862745,0.47843137254901963,0.49019607843137253,0.48627450980392156,0.403921568627451,0.6392156862745098
269,16.633327007293698,0,0.6405570221402348,0.6723237750789768,0.7819843507131415,0.8456814425976696,0.6027626343910893,0.6723237750789768,0.7819843507131415,0.4745098039215686,0.5019607843137255,0.5058823529411764,0.5019607843137255,0.4980392156862745,0.4980392156862745,0.5019607843137255,0.5372549019607843
270,16.635300993919373,0,0.615535265482029,0.6936466636716077,0.774369039087836,0.846153681280041,0.6040617285744039,0.6936466636716077,0.774369039087836,0.5333333333333333,0.5019607843137255,0.49411764705882355,0.5058823529411764,0.4980392156862745,0.5019607843137255,0.43137254901960786,0.5803921568627451
271,16.66330802440643,0,0.6000870444570184,0.7225848728016417,0.7782854826475667,0.8468177974232095,0.604827536206956,0.7225848728016417,0.7782854826475667,0.4392156862745098,0.4980392156862745,0.5098039215686274,0.49019607843137253,0.4980392156862745,0.49411764705882355,0.4823529411764706,0.49411764705882355
272,16.693360090255734,0,0.5937772125329401,0.7197563289929337,0.7776327383409043,0.8477647657192245,0.6046624797038118,0.7197563289929337,0.7776327383409043,0.5176470588235295,0.5019607843137255,0.5019607843137255,0.5137254901960784,0.4980392156862745,0.49411764705882355,0.48627450980392156,0.4235294117647059
273,16.695357084274292,0,0.5933420570885799,0.7049608522745855,0.7793733868546382,0.8490484687100264,0.6036037135997627,0.7049608522745855,0.7793733868546382,0.48627450980392156,0.49411764705882355,0.5058823529411764,0.5019607843137255,0.49411764705882355,0.5058823529411764,0.5372549019607843,0.4470588235294118
274,16.723312020301822,0,0.6048738211857134,0.6988686003007119,0.781766770762937,0.8505019248793947,0.601938991701322,0.6988686003007119,0.781766770762937,0.49019607843137253,0.49019607843137253,0.4980392156862745,0.5019607843137255,0.5098039215686274,0.5176470588235295,0.7019607843137254,0.3568627450980392
275,16.753444075584408,0,0.6044386568292557,0.6901653755562374,0.774369039087836,0.8520952074036716,0.599551195678203,0.6901653755562374,0.774369039087836,0.4980392156862745,0.5058823529411764,0.5019607843137255,0.5058823529411764,0.49411764705882355,0.49411764705882355,0.4235294117647059,0.5450980392156862
276,16.75532603263855,0,0.5896431801109075,0.6908181243189485,0.7900348311509536,0.8537299311816737,0.5969138475548278,0.6908181243189485,0.7900348311509536,0.40784313725490196,0.4823529411764706,0.4980392156862745,0.49019607843137253,0.5019607843137255,0.5019607843137255,0.4823529411764706,0.2235294117647059
277,16.78328001499176,0,0.5924717283756641,0.6795039312599219,0.8146214189966529,0.8552515381612008,0.5942477801970162,0.6795039312599219,0.8146214189966529,0.4823529411764706,0.5019607843137255,0.49411764705882355,0.5019607843137255,0.49019607843137253,0.4823529411764706,0.3843137254901961,0.611764705882353
278,16.81349205970764,0,0.5992167246562002,0.6616623307826612,0.830069648933761,0.8564975385232101,0.5920157141669287,0.6616623307826612,0.830069648933761,0.5686274509803921,0.5137254901960784,0.4980392156862745,0.5058823529411764,0.4980392156862745,0.5019607843137255,0.5372549019607843,0.6705882352941176
279,16.815513014793392,0,0.6135770370180905,0.6895126357056237,0.8296344712091568,0.8571652328735552,0.5919844460725857,0.6895126357056237,0.8296344712091568,0.4980392156862745,0.49019607843137253,0.5058823529411764,0.48627450980392156,0.5137254901960784,0.5098039215686274,0.4666666666666667,0.5882352941176471
280,16.843440055847168,0,0.6037859214346908,0.7149695522642388,0.810487408854864,0.8571426407062017,0.5935906823306882,0.7149695522642388,0.810487408854864,0.5215686274509804,0.5098039215686274,0.49411764705882355,0.5019607843137255,0.4980392156862745,0.49019607843137253,0.4823529411764706,0.6549019607843137
281,16.903786063194275,0,0.5909486687242322,0.724760676759736,0.8041775546505419,0.8574231044168978,0.5942463052448674,0.724760676759736,0.8041775546505419,0.5098039215686274,0.4980392156862745,0.49019607843137253,0.5058823529411764,0.4980392156862745,0.5058823529411764,0.5529411764705883,0.6666666666666666
282,16.90618109703064,0,0.6077023649944214,0.7008268109404553,0.8013490152978828,0.8579149630820814,0.593567096464455,0.7008268109404553,0.8013490152978828,0.4588235294117647,0.4823529411764706,0.5098039215686274,0.48627450980392156,0.5058823529411764,0.5215686274509804,0.47058823529411764,0.42745098039215684
283,16.933737993240356,0,0.6201044533484221,0.6418625018414622,0.8126632083569094,0.8590965869072552,0.5905974340466903,0.6418625018414622,0.8126632083569094,0.5176470588235295,0.5176470588235295,0.49411764705882355,0.5098039215686274,0.4980392156862745,0.49411764705882355,0.4745098039215686,0.5098039215686274
284,16.935295104980472,0,0.6518712062871639,0.62597912982814,0.8137511081079322,0.8591643946016573,0.5901938586200882,0.62597912982814,0.8137511081079322,0.4980392156862745,0.48627450980392156,0.5490196078431373,0.4980392156862745,0.4980392156862745,0.5058823529411764,0.5490196078431373,0.3843137254901961
285,16.963308095932007,0,0.6433855704049914,0.6588337825179046,0.8065709430148895,0.858771905824439,0.5914139470583973,0.6588337825179046,0.8065709430148895,0.5098039215686274,0.5098039215686274,0.4823529411764706,0.5058823529411764,0.5019607843137255,0.5137254901960784,0.7411764705882353,0.5803921568627451
286,16.993360996246338,0,0.6301131577941238,0.6768929718574673,0.7935161192663239,0.8584328896326727,0.5924795130928961,0.6768929718574673,0.7935161192663239,0.5098039215686274,0.5098039215686274,0.5019607843137255,0.49411764705882355,0.5019607843137255,0.49019607843137253,0.5058823529411764,0.5333333333333333
287,16.995464086532593,0,0.6362054142240463,0.6599216867249761,0.7850304789281027,0.8583981770126167,0.5926401982121797,0.6599216867249761,0.7850304789281027,0.4392156862745098,0.47843137254901963,0.5098039215686274,0.48627450980392156,0.5019607843137255,0.4980392156862745,0.4196078431372549,0.3764705882352941
288,17.023452043533325,0,0.6488250780722028,0.6416449218912575,0.7813316153185766,0.858381801033322,0.5923718237618445,0.6416449218912575,0.7813316153185766,0.5058823529411764,0.5019607843137255,0.49019607843137253,0.49019607843137253,0.5019607843137255,0.49411764705882355,0.41568627450980394,0.4549019607843137
289,17.053508043289185,0,0.6688424869636065,0.6390339580327542,0.775674527701161,0.8581142643201589,0.5924730384540077,0.6390339580327542,0.775674527701161,0.5372549019607843,0.49411764705882355,0.4823529411764706,0.49019607843137253,0.49019607843137253,0.49019607843137253,0.4627450980392157,0.49019607843137253
290,17.055333018302914,0,0.6816797396740649,0.6298955778439194,0.7767624274521836,0.8577398849252136,0.5927743564730302,0.6298955778439194,0.7767624274521836,0.5647058823529412,0.5058823529411764,0.47058823529411764,0.5058823529411764,0.4980392156862745,0.4745098039215686,0.47843137254901963,0.5843137254901961
291,17.083562016487118,0,0.6825500594748831,0.6344647657103124,0.778067902697362,0.8573651089419263,0.5933475380285888,0.6344647657103124,0.778067902697362,0.48627450980392156,0.49019607843137253,0.5058823529411764,0.5058823529411764,0.5058823529411764,0.5019607843137255,0.5058823529411764,0.47058823529411764
292,17.113323092460632,0,0.6747171634433243,0.6496954023290697,0.7734987103749204,0.8571763729955244,0.5938104680250427,0.6496954023290697,0.7734987103749204,0.49411764705882355,0.5019607843137255,0.5098039215686274,0.5019607843137255,0.5019607843137255,0.5058823529411764,0.611764705882353,0.5450980392156862
293,17.115703105926517,0,0.6814621597238604,0.6592689424183137,0.7778503272032063,0.857152916354706,0.5938117246308008,0.6592689424183137,0.7778503272032063,0.5019607843137255,0.5019607843137255,0.4823529411764706,0.49019607843137253,0.49019607843137253,0.4980392156862745,0.4823529411764706,0.40784313725490196
294,17.143380999565125,0,0.7010443998027575,0.6488250780722028,0.7804612866056609,0.8572005960767342,0.5933198882458612,0.6488250780722028,0.7804612866056609,0.5058823529411764,0.4980392156862745,0.49411764705882355,0.5058823529411764,0.5019607843137255,0.5019607843137255,0.49411764705882355,0.4549019607843137
295,17.173423051834106,0,0.6886423248169031,0.634682345660517,0.7771975784404951,0.8574984383777023,0.592503482179325,0.634682345660517,0.7771975784404951,0.5411764705882353,0.5058823529411764,0.5058823529411764,0.5058823529411764,0.49411764705882355,0.5019607843137255,0.6039215686274509,0.5529411764705883
296,17.17531406879425,0,0.6997389111894325,0.6418625018414622,0.7728459616122091,0.8576570915387387,0.5916588158513775,0.6418625018414622,0.7728459616122091,0.48627450980392156,0.5019607843137255,0.5019607843137255,0.49019607843137253,0.4980392156862745,0.49411764705882355,0.4470588235294118,0.5333333333333333
297,17.203423023223873,0,0.6766753829951653,0.6320713818020136,0.7765448385898815,0.858144315913183,0.5903525518855636,0.6320713818020136,0.7765448385898815,0.48627450980392156,0.48627450980392156,0.5019607843137255,0.49411764705882355,0.4980392156862745,0.5019607843137255,0.396078431372549,0.49411764705882355
298,17.233365058898926,0,0.7006092399023482,0.6331592860090852,0.7774151494786021,0.8585280440984847,0.5891023940300353,0.6331592860090852,0.7774151494786021,0.4980392156862745,0.5137254901960784,0.48627450980392156,0.5019607843137255,0.4980392156862745,0.49411764705882355,0.5450980392156862,0.5490196078431373
299,17.235329031944275,0,0.7030026282666959,0.6388163780825497,0.7763272497275794,0.8588747336062633,0.5879393920327451,0.6388163780825497,0.7763272497275794,0.48627450980392156,0.4980392156862745,0.5019607843137255,0.5058823529411764,0.5098039215686274,0.49411764705882355,0.49411764705882355,0.47058823529411764
300,17.263321042060852,0,0.6934290837214031,0.6427328260983292,0.7737162903251248,0.8593706205395507,0.5865727842542486,0.6427328260983292,0.7737162903251248,0.5019607843137255,0.48627450980392156,0.49411764705882355,0.49411764705882355,0.49019607843137253,0.5019607843137255,0.47843137254901963,0.4588235294117647
301,17.293483018875122,0,0.6912532797633089,0.6592689424183137,0.7713229064168261,0.8600269074049994,0.584778801292575,0.6592689424183137,0.7713229064168261,0.3843137254901961,0.48627450980392156,0.49411764705882355,0.4823529411764706,0.48627450980392156,0.47843137254901963,0.24313725490196078,0.38823529411764707
302,17.295343995094303,0,0.6729765149295904,0.6640557191470088,0.7732811393368133,0.8609754531422852,0.5824930933471815,0.6640557191470088,0.7732811393368133,0.5333333333333333,0.5058823529411764,0.4980392156862745,0.5019607843137255,0.49411764705882355,0.49411764705882355,0.5254901960784314,0.5568627450980392
303,17.323424100875854,0,0.6355526699173839,0.6744995834931197,0.7928633794157103,0.8623128604330761,0.5793395030596568,0.6744995834931197,0.7928633794157103,0.5019607843137255,0.5019607843137255,0.5058823529411764,0.5019607843137255,0.5019607843137255,0.4980392156862745,0.5019607843137255,0.48627450980392156
304,17.353345036506653,0,0.6366405741244555,0.6379460538256827,0.8161444964722797,0.8637377265934227,0.5756979308693938,0.6379460538256827,0.8161444964722797,0.4823529411764706,0.5058823529411764,0.49411764705882355,0.5058823529411764,0.5019607843137255,0.5098039215686274,0.6274509803921569,0.6078431372549019
305,17.355454087257385,0,0.6375108939252737,0.5953002766404207,0.8483464003993333,0.8650680799589828,0.5718621640729641,0.5953002766404207,0.8483464003993333,0.5215686274509804,0.5019607843137255,0.4980392156862745,0.49019607843137253,0.5019607843137255,0.49411764705882355,0.4117647058823529,0.47843137254901963
306,17.383181095123287,0,0.6164055852828472,0.5933420570885799,0.8570496251438078,0.8660431748349456,0.5693315561422488,0.5933420570885799,0.8570496251438078,0.5254901960784314,0.5058823529411764,0.5098039215686274,0.5137254901960784,0.5019607843137255,0.4980392156862745,0.5137254901960784,0.5372549019607843
307,17.413433074951172,0,0.6214099375056981,0.5937772125329401,0.8498694778749601,0.8667194203429143,0.5677258323297568,0.5937772125329401,0.8498694778749601,0.42745098039215684,0.48627450980392156,0.49411764705882355,0.49411764705882355,0.4980392156862745,0.49019607843137253,0.45098039215686275,0.47843137254901963
308,17.415325045585632,0,0.6316362263576533,0.586597056351995,0.8372498006586574,0.8671446254303318,0.5667512142510144,0.586597056351995,0.8372498006586574,0.5098039215686274,0.49019607843137253,0.5019607843137255,0.5019607843137255,0.49411764705882355,0.5019607843137255,0.5529411764705883,0.4980392156862745
309,17.443095088005062,0,0.6355526699173839,0.5972585006483105,0.8207136843386728,0.8673627089140493,0.5664722210364181,0.5972585006483105,0.8207136843386728,0.5176470588235295,0.4980392156862745,0.5058823529411764,0.49411764705882355,0.49411764705882355,0.4980392156862745,0.5725490196078431,0.4235294117647059
310,17.473427057266235,0,0.63685815407466,0.607049620687759,0.8072236917776008,0.8675096382107252,0.56636628293254,0.607049620687759,0.8072236917776008,0.5137254901960784,0.49019607843137253,0.4980392156862745,0.4980392156862745,0.49411764705882355,0.5058823529411764,0.5686274509803921,0.5058823529411764
311,17.475247025489807,0,0.6399042822896212,0.6218450974061073,0.8035248326241234,0.8676185618672911,0.566366323036979,0.6218450974061073,0.8035248326241234,0.5058823529411764,0.5019607843137255,0.4980392156862745,0.49411764705882355,0.5098039215686274,0.5098039215686274,0.592156862745098,0.5137254901960784
312,17.503430008888245,0,0.64229766619792,0.6403394421900303,0.8076588427659122,0.8678109116692599,0.5661764418860387,0.6403394421900303,0.8076588427659122,0.5450980392156862,0.5098039215686274,0.49019607843137253,0.5019607843137255,0.5019607843137255,0.49411764705882355,0.5019607843137255,0.5411764705882353
313,17.53324007987976,0,0.6401218622398258,0.6366405741244555,0.8063533675207337,0.8681867080877196,0.5652503991951306,0.6366405741244555,0.8063533675207337,0.5019607843137255,0.49411764705882355,0.49019607843137253,0.49019607843137253,0.49019607843137253,0.4980392156862745,0.48627450980392156,0.43529411764705883
314,17.535372018814087,0,0.628154938242283,0.6303307377443285,0.8150565967212571,0.8687825531074121,0.5635906547031857,0.6303307377443285,0.8150565967212571,0.5058823529411764,0.49411764705882355,0.4980392156862745,0.5019607843137255,0.5019607843137255,0.49411764705882355,0.47058823529411764,0.5372549019607843
315,17.563363075256348,0,0.6270670295791627,0.618363809290737,0.8276762605694133,0.8694397757431063,0.56155188315741,0.618363809290737,0.8276762605694133,0.4470588235294118,0.49411764705882355,0.5019607843137255,0.4980392156862745,0.49411764705882355,0.49411764705882355,0.4823529411764706,0.4
316,17.5935150384903,0,0.6244560612646106,0.5992167246562002,0.8422541528815083,0.8701128752806307,0.5592383471873376,0.5992167246562002,0.8422541528815083,0.49019607843137253,0.4980392156862745,0.5058823529411764,0.4980392156862745,0.49411764705882355,0.49411764705882355,0.43137254901960786,0.5529411764705883
317,17.59541404247284,0,0.6288076736368479,0.5759356165117283,0.8418190018931968,0.870632232222883,0.5572263030221903,0.5759356165117283,0.8418190018931968,0.5333333333333333,0.5058823529411764,0.49411764705882355,0.5019607843137255,0.4980392156862745,0.5019607843137255,0.5450980392156862,0.4745098039215686
318,17.6234130859375,0,0.6257615498779353,0.5676675516676628,0.8352915766507677,0.8710260845510303,0.5557062556597389,0.5676675516676628,0.8352915766507677,0.4745098039215686,0.49019607843137253,0.49411764705882355,0.49411764705882355,0.4980392156862745,0.49019607843137253,0.41568627450980394,0.21176470588235294
319,17.653377056121823,0,0.628154938242283,0.5707136798826241,0.8305048043781214,0.871303139384404,0.554701046806069,0.5707136798826241,0.8305048043781214,0.48627450980392156,0.4980392156862745,0.5019607843137255,0.49411764705882355,0.49411764705882355,0.5058823529411764,0.5764705882352941,0.5372549019607843
320,17.655346035957336,0,0.6331592860090852,0.5824630239299623,0.8305048043781214,0.8715002081420388,0.5540163659977454,0.5824630239299623,0.8305048043781214,0.48627450980392156,0.48627450980392156,0.4980392156862745,0.4823529411764706,0.5019607843137255,0.5098039215686274,0.5176470588235295,0.5686274509803921
321,17.683288097381595,0,0.62597912982814,0.5892080202104983,0.830069648933761,0.8716737088576356,0.55347474663575,0.5892080202104983,0.830069648933761,0.5215686274509804,0.5098039215686274,0.4980392156862745,0.5019607843137255,0.5019607843137255,0.49411764705882355,0.49411764705882355,0.5843137254901961
322,17.71350109577179,0,0.6335944459094942,0.5955178565906254,0.8453002900085672,0.871805287066238,0.5530657660219684,0.5955178565906254,0.8453002900085672,0.5254901960784314,0.4980392156862745,0.4980392156862745,0.5058823529411764,0.5019607843137255,0.5019607843137255,0.5137254901960784,0.47058823529411764
323,17.715419054031372,0,0.6314186374953512,0.5959530164910345,0.8463881897595898,0.8718989665799013,0.5527421098303733,0.5959530164910345,0.8463881897595898,0.5294117647058824,0.5098039215686274,0.49019607843137253,0.5058823529411764,0.4980392156862745,0.5019607843137255,0.5058823529411764,0.5411764705882353
324,17.743386030197144,0,0.6303307377443285,0.5887728603100894,0.8426893127819174,0.8719571046484342,0.5524709548055946,0.5887728603100894,0.8426893127819174,0.5254901960784314,0.5058823529411764,0.5019607843137255,0.5019607843137255,0.4980392156862745,0.4980392156862745,0.5215686274509804,0.5411764705882353
325,17.77345299720764,0,0.6255439610156334,0.5822454439797577,0.8370322251645016,0.8719654463717647,0.5522219240630466,0.5822454439797577,0.8370322251645016,0.4470588235294118,0.4980392156862745,0.5019607843137255,0.49411764705882355,0.49411764705882355,0.4980392156862745,0.49019607843137253,0.4117647058823529
326,17.77530705928802,0,0.6335944459094942,0.5757180276494261,0.8374673806088619,0.8719064794781574,0.5521665086403231,0.5757180276494261,0.8374673806088619,0.49019607843137253,0.49411764705882355,0.4980392156862745,0.49411764705882355,0.49411764705882355,0.49019607843137253,0.45098039215686275,0.5058823529411764
327,17.803381085395813,0,0.6383812137260919,0.5737598080975853,0.8379025360532223,0.8718104382586367,0.5522509685890447,0.5737598080975853,0.8379025360532223,0.5333333333333333,0.49019607843137253,0.49411764705882355,0.49411764705882355,0.49019607843137253,0.49019607843137253,0.4627450980392157,0.4470588235294118
328,17.833415031433105,0,0.641427341941053,0.5828981927424689,0.8287641603204362,0.871651477630234,0.5527414993516894,0.5828981927424689,0.8287641603204362,0.4980392156862745,0.49411764705882355,0.5058823529411764,0.5019607843137255,0.4980392156862745,0.5098039215686274,0.5333333333333333,0.5254901960784314
329,17.835329055786133,0,0.6359878253617443,0.5931244682262778,0.8270235162627511,0.8715322203965294,0.5531743109143874,0.5931244682262778,0.8270235162627511,0.5019607843137255,0.5098039215686274,0.4980392156862745,0.5058823529411764,0.5019607843137255,0.4980392156862745,0.5450980392156862,0.5529411764705883
330,17.863454103469852,0,0.6375108939252737,0.6083551093010838,0.8287641603204362,0.8714568062268468,0.5535837014846574,0.6083551093010838,0.8287641603204362,0.48627450980392156,0.49411764705882355,0.5019607843137255,0.4980392156862745,0.4980392156862745,0.5019607843137255,0.4588235294117647,0.5137254901960784
331,17.893383026123047,0,0.6427328260983292,0.6013925330703431,0.8270235162627511,0.8714571181502621,0.5536381633129402,0.6013925330703431,0.8270235162627511,0.5019607843137255,0.4980392156862745,0.5019607843137255,0.5058823529411764,0.4980392156862745,0.5019607843137255,0.5333333333333333,0.5098039215686274
332,17.895376086235046,0,0.6270670295791627,0.5998694645068139,0.8320278595735043,0.8716013158890311,0.5532048437606806,0.5998694645068139,0.8320278595735043,0.5019607843137255,0.4980392156862745,0.4980392156862745,0.48627450980392156,0.5019607843137255,0.49411764705882355,0.4470588235294118,0.3058823529411765
333,17.923428058624264,0,0.6366405741244555,0.5879025405092712,0.8333333481868292,0.8716680229393827,0.5529022825040463,0.5879025405092712,0.8333333481868292,0.5058823529411764,0.5058823529411764,0.5019607843137255,0.5019607843137255,0.5019607843137255,0.5058823529411764,0.6196078431372549,0.6
334,17.953545093536373,0,0.6264142897285491,0.5907310798619302,0.834638836800154,0.871775993001508,0.5525213170689929,0.5907310798619302,0.834638836800154,0.5098039215686274,0.5019607843137255,0.49411764705882355,0.5058823529411764,0.4980392156862745,0.5058823529411764,0.5176470588235295,0.596078431372549
335,17.955345034599304,0,0.6329417060588806,0.5859443120453326,0.8370322251645016,0.8718387787289263,0.5522784178495768,0.5859443120453326,0.8370322251645016,0.5058823529411764,0.49411764705882355,0.5019607843137255,0.5019607843137255,0.5058823529411764,0.5058823529411764,0.5254901960784314,0.5098039215686274
336,17.983296990394596,0,0.6394691134771145,0.579852060071459,0.835944325413479,0.8718839853438772,0.5520859700145347,0.579852060071459,0.835944325413479,0.49411764705882355,0.5019607843137255,0.49411764705882355,0.5019607843137255,0.5019607843137255,0.4980392156862745,0.45098039215686275,0.4823529411764706
337,18.013517022132877,0,0.6277197694297764,0.5900783444673653,0.828546571458134,0.8719152712624155,0.5520868790484874,0.5900783444673653,0.828546571458134,0.48627450980392156,0.49411764705882355,0.5098039215686274,0.49411764705882355,0.5019607843137255,0.4980392156862745,0.45098039215686275,0.3568627450980392
338,18.015659093856808,0,0.6288076736368479,0.5992167246562002,0.834421247937852,0.8719139522719742,0.5521137846710673,0.5992167246562002,0.834421247937852,0.4980392156862745,0.4980392156862745,0.4980392156862745,0.5019607843137255,0.5019607843137255,0.4980392156862745,0.5372549019607843,0.5294117647058824
339,18.043388009071354,0,0.6399042822896212,0.5924717283756641,0.8350739967005633,0.8719139522719742,0.5521137846710673,0.5924717283756641,0.8350739967005633,0.4823529411764706,0.4980392156862745,0.4980392156862745,0.49411764705882355,0.49019607843137253,0.4980392156862745,0.47058823529411764,0.49411764705882355
340,18.073525071144108,0,0.6316362263576533,0.5937772125329401,0.834421247937852,0.87199358186381,0.5519501496474863,0.5937772125329401,0.834421247937852,0.5137254901960784,0.5058823529411764,0.49019607843137253,0.5019607843137255,0.49019607843137253,0.4980392156862745,0.42745098039215684,0.5411764705882353
341,18.075376033782963,0,0.6277197694297764,0.5946475367898072,0.8302872244279168,0.8720639874346554,0.5518177426138094,0.5946475367898072,0.8302872244279168,0.5137254901960784,0.5019607843137255,0.49411764705882355,0.4980392156862745,0.49019607843137253,0.49019607843137253,0.4745098039215686,0.6784313725490196
342,18.10344910621643,0,0.6307658976447376,0.5944299568396025,0.8374673806088619,0.8721130485318076,0.5517349447712857,0.5944299568396025,0.8374673806088619,0.4823529411764706,0.4980392156862745,0.4980392156862745,0.5019607843137255,0.4980392156862745,0.5058823529411764,0.5333333333333333,0.47843137254901963
343,18.133365035057064,0,0.630983477594942,0.5911662486744368,0.8374673806088619,0.8721888013611981,0.5515160502866887,0.5911662486744368,0.8374673806088619,0.5529411764705883,0.5098039215686274,0.5058823529411764,0.5019607843137255,0.5098039215686274,0.5215686274509804,0.7764705882352941,0.7058823529411765
344,18.135350108146667,0,0.6244560612646106,0.5894256001607029,0.8348564256624562,0.8722677179852277,0.551243469326298,0.5894256001607029,0.8348564256624562,0.5215686274509804,0.4980392156862745,0.4980392156862745,0.4980392156862745,0.4980392156862745,0.49019607843137253,0.3686274509803922,0.5098039215686274
345,18.16356110572815,0,0.6264142897285491,0.5874673806088619,0.8370322251645016,0.8722715947476731,0.5512443337997628,0.5874673806088619,0.8370322251645016,0.47058823529411764,0.49411764705882355,0.49411764705882355,0.4980392156862745,0.4980392156862745,0.49411764705882355,0.4745098039215686,0.44313725490196076
346,18.19337701797485,0,0.6322889617522182,0.5852915721947191,0.8350739967005633,0.8722943384206854,0.551107350403981,0.5852915721947191,0.8350739967005633,0.4627450980392157,0.49411764705882355,0.5058823529411764,0.5019607843137255,0.49411764705882355,0.49411764705882355,0.4,0.3764705882352941
347,18.1956160068512,0,0.6253263855214776,0.5900783444673653,0.8357267365511768,0.872305193355532,0.551109761126375,0.5900783444673653,0.8357267365511768,0.4745098039215686,0.5019607843137255,0.4980392156862745,0.49019607843137253,0.5019607843137255,0.49019607843137253,0.47058823529411764,0.4980392156862745
348,18.223438024520874,0,0.6312010575451467,0.5870322162524042,0.8337685125432871,0.872305193355532,0.551109761126375,0.5870322162524042,0.8337685125432871,0.5098039215686274,0.48627450980392156,0.4980392156862745,0.4980392156862745,0.4980392156862745,0.49019607843137253,0.4823529411764706,0.49019607843137253
349,18.253356099128727,0,0.6294604179435103,0.5931244682262778,0.8348564256624562,0.8723232849136101,0.5510533475487231,0.5931244682262778,0.8348564256624562,0.49411764705882355,0.49411764705882355,0.49019607843137253,0.49411764705882355,0.48627450980392156,0.4980392156862745,0.6745098039215687,0.611764705882353
350,18.255400061607357,0,0.6279373493799809,0.5913838286246414,0.8363794764017904,0.8723271393958114,0.5510541986540415,0.5913838286246414,0.8363794764017904,0.5176470588235295,0.5098039215686274,0.5019607843137255,0.5058823529411764,0.5019607843137255,0.5019607843137255,0.4588235294117647,0.4980392156862745
351,18.28332805633545,0,0.6329417060588806,0.5902959244175698,0.8350739967005633,0.8723343626508963,0.5509953788100442,0.5902959244175698,0.8350739967005633,0.4823529411764706,0.49019607843137253,0.5058823529411764,0.5058823529411764,0.49411764705882355,0.5058823529411764,0.49019607843137253,0.4549019607843137
352,18.313270092010494,0,0.6292428379933056,0.5902959244175698,0.8322454484358065,0.8723601364370841,0.5508650839434927,0.5902959244175698,0.8322454484358065,0.49019607843137253,0.4980392156862745,0.5019607843137255,0.5019607843137255,0.5019607843137255,0.5098039215686274,0.5882352941176471,0.48627450980392156
353,18.315600991249088,0,0.6301131577941238,0.5900783444673653,0.8363794764017904,0.8723801440961408,0.5507819028807731,0.5900783444673653,0.8363794764017904,0.4588235294117647,0.49019607843137253,0.49411764705882355,0.4980392156862745,0.5019607843137255,0.4980392156862745,0.4549019607843137,0.4627450980392157
354,18.3433210849762,0,0.6318538018518091,0.5881201204594756,0.8381201249155243,0.8724058554976456,0.5506455789802118,0.5881201204594756,0.8381201249155243,0.5137254901960784,0.49411764705882355,0.4980392156862745,0.5058823529411764,0.5019607843137255,0.5019607843137255,0.5254901960784314,0.4627450980392157
355,18.373426079750057,0,0.6338120258596988,0.5863794808578392,0.8350739967005633,0.8724315490749555,0.5505092550796505,0.5863794808578392,0.8350739967005633,0.5058823529411764,0.5019607843137255,0.5058823529411764,0.4980392156862745,0.4980392156862745,0.4980392156862745,0.4666666666666667,0.47843137254901963
356,18.37533903121948,0,0.6275021894795717,0.5859443120453326,0.8355091476888747,0.8724559414860191,0.5503998412577179,0.5859443120453326,0.8355091476888747,0.5176470588235295,0.49019607843137253,0.4980392156862745,0.5019607843137255,0.4980392156862745,0.5058823529411764,0.4588235294117647,0.5803921568627451
357,18.403484106063843,0,0.6290252491310037,0.5887728603100894,0.8355091476888747,0.8724508303980597,0.5504259180552235,0.5887728603100894,0.8355091476888747,0.47843137254901963,0.49411764705882355,0.49411764705882355,0.49411764705882355,0.5019607843137255,0.5019607843137255,0.4588235294117647,0.43529411764705883
358,18.463429093360897,0,0.6296779978937148,0.5902959244175698,0.8337685125432871,0.8724840324175767,0.5503456378802647,0.5902959244175698,0.8337685125432871,0.5058823529411764,0.49019607843137253,0.4980392156862745,0.4980392156862745,0.4980392156862745,0.49019607843137253,0.4823529411764706,0.49411764705882355
359,18.494181990623478,0,0.6298955778439194,0.585726732095128,0.8328981882864201,0.8725173636625084,0.5502109983661452,0.585726732095128,0.8328981882864201,0.4470588235294118,0.49411764705882355,0.5019607843137255,0.49411764705882355,0.5058823529411764,0.5215686274509804,0.6823529411764706,0.34901960784313724
360,18.523526072502136,0,0.6364229941742509,0.578981735814592,0.838990435804245,0.8726431846560772,0.5497191976295959,0.578981735814592,0.838990435804245,0.5254901960784314,0.5098039215686274,0.5058823529411764,0.5019607843137255,0.4980392156862745,0.49019607843137253,0.4549019607843137,0.6431372549019608
361,18.553604006767273,0,0.6329417060588806,0.5831157682366247,0.838772864766138,0.8726431846560772,0.5497191976295959,0.5831157682366247,0.838772864766138,0.5333333333333333,0.5019607843137255,0.49019607843137253,0.5019607843137255,0.49411764705882355,0.4980392156862745,0.4666666666666667,0.596078431372549
362,18.555613040924076,0,0.6320713818020136,0.5850739922445144,0.8374673806088619,0.8726139529760301,0.5498003556461658,0.5850739922445144,0.8374673806088619,0.4980392156862745,0.5019607843137255,0.49411764705882355,0.49411764705882355,0.49411764705882355,0.48627450980392156,0.4470588235294118,0.48627450980392156
363,18.58329904079437,0,0.6290252491310037,0.5909486687242322,0.8376849605590666,0.8725501869178784,0.5500490299048107,0.5909486687242322,0.8376849605590666,0.4392156862745098,0.49411764705882355,0.49411764705882355,0.49019607843137253,0.4980392156862745,0.5019607843137255,0.5254901960784314,0.2549019607843137
364,18.61337208747864,0,0.6322889617522182,0.5911662486744368,0.834638836800154,0.8724518151848417,0.5503989366798141,0.5911662486744368,0.834638836800154,0.5372549019607843,0.5098039215686274,0.5058823529411764,0.5019607843137255,0.5058823529411764,0.49411764705882355,0.5372549019607843,0.6549019607843137
365,18.615613102912906,0,0.6390339580327542,0.5898607689732095,0.8296344712091568,0.8723299244263037,0.5507556255610723,0.5898607689732095,0.8296344712091568,0.5098039215686274,0.4980392156862745,0.4980392156862745,0.5019607843137255,0.4980392156862745,0.49411764705882355,0.41568627450980394,0.5137254901960784
366,18.64327204227448,0,0.6340296058099034,0.5931244682262778,0.8265883608183907,0.872246266566364,0.551081554337549,0.5931244682262778,0.8265883608183907,0.5333333333333333,0.5098039215686274,0.4980392156862745,0.5098039215686274,0.4980392156862745,0.49411764705882355,0.4745098039215686,0.6352941176470588
367,18.67335700988769,0,0.6292428379933056,0.5907310798619302,0.8278938494317156,0.8722191203171494,0.5512447571243976,0.5907310798619302,0.8278938494317156,0.5137254901960784,0.49411764705882355,0.49411764705882355,0.4980392156862745,0.5019607843137255,0.49411764705882355,0.5058823529411764,0.5490196078431373
368,18.675474047660828,0,0.6316362263576533,0.5957354365408299,0.8335509370491313,0.8722672723803491,0.5511617765838736,0.5957354365408299,0.8335509370491313,0.4470588235294118,0.49411764705882355,0.48627450980392156,0.4980392156862745,0.49411764705882355,0.49019607843137253,0.5568627450980392,0.5764705882352941
369,18.70346605777741,0,0.630548317694533,0.585726732095128,0.8361618964515859,0.8723530067590238,0.5508091159707195,0.585726732095128,0.8361618964515859,0.5254901960784314,0.5019607843137255,0.4980392156862745,0.4980392156862745,0.4980392156862745,0.4980392156862745,0.47058823529411764,0.5019607843137255
370,18.733570098876953,0,0.6272846095293673,0.5796344801212543,0.8339860924934916,0.8724237688137721,0.550480344235116,0.5796344801212543,0.8339860924934916,0.5137254901960784,0.5019607843137255,0.5019607843137255,0.5058823529411764,0.49411764705882355,0.5098039215686274,0.4980392156862745,0.5647058823529412
371,18.73549699783325,0,0.6235857414637924,0.5855091521449235,0.8379025360532223,0.8724584546975354,0.5503459988202165,0.5855091521449235,0.8379025360532223,0.4980392156862745,0.5058823529411764,0.5058823529411764,0.5019607843137255,0.49019607843137253,0.5019607843137255,0.4980392156862745,0.5176470588235295
372,18.793646097183228,0,0.6240209013642014,0.5881201204594756,0.8413838241685926,0.8724622690752976,0.5503468410134373,0.5881201204594756,0.8413838241685926,0.5098039215686274,0.49019607843137253,0.5019607843137255,0.49411764705882355,0.49411764705882355,0.49411764705882355,0.3764705882352941,0.47843137254901963
373,18.795531034469604,0,0.6246736501269127,0.5887728603100894,0.8461706008972878,0.8724661280135478,0.5503476832066582,0.5887728603100894,0.8461706008972878,0.4627450980392157,0.49019607843137253,0.5098039215686274,0.5019607843137255,0.4980392156862745,0.5019607843137255,0.47058823529411764,0.49411764705882355
374,18.823384046554565,0,0.6314186374953512,0.5855091521449235,0.8420365729313039,0.8724585081701209,0.550373207454114,0.5855091521449235,0.8420365729313039,0.5058823529411764,0.5058823529411764,0.4980392156862745,0.5019607843137255,0.5019607843137255,0.4980392156862745,0.5294117647058824,0.5137254901960784
375,18.85359501838684,0,0.630548317694533,0.5859443120453326,0.8348564256624562,0.872434788622424,0.5504283733381055,0.5859443120453326,0.8348564256624562,0.5568627450980392,0.5019607843137255,0.49019607843137253,0.49411764705882355,0.4980392156862745,0.49411764705882355,0.48627450980392156,0.5647058823529412
376,18.85534608364105,0,0.632724126108676,0.5824630239299623,0.8350739967005633,0.8724263978825567,0.5504809235214585,0.5824630239299623,0.8350739967005633,0.5137254901960784,0.5058823529411764,0.5019607843137255,0.5019607843137255,0.49411764705882355,0.5019607843137255,0.5529411764705883,0.6274509803921569
377,18.88347804546356,0,0.630983477594942,0.5852915721947191,0.8287641603204362,0.8724165500147361,0.5505663326085718,0.5852915721947191,0.8287641603204362,0.5098039215686274,0.48627450980392156,0.5019607843137255,0.49411764705882355,0.4980392156862745,0.49019607843137253,0.5058823529411764,0.5529411764705883
378,18.913442015647885,0,0.6242384813144061,0.5955178565906254,0.8315927085851929,0.8724332735658363,0.5507000229842995,0.5955178565906254,0.8315927085851929,0.4470588235294118,0.49411764705882355,0.49019607843137253,0.48627450980392156,0.48627450980392156,0.49019607843137253,0.5098039215686274,0.4117647058823529
379,18.915768027305607,0,0.6298955778439194,0.5979112449549728,0.8328981882864201,0.8724543640447483,0.5508074716887168,0.5979112449549728,0.8328981882864201,0.5098039215686274,0.5058823529411764,0.4980392156862745,0.5019607843137255,0.4980392156862745,0.4980392156862745,0.4627450980392157,0.45098039215686275
380,18.943397045135494,0,0.6277197694297764,0.5981288249051775,0.8348564256624562,0.8725466844635313,0.550673843697672,0.5981288249051775,0.8348564256624562,0.5019607843137255,0.4823529411764706,0.4980392156862745,0.5019607843137255,0.4980392156862745,0.48627450980392156,0.44313725490196076,0.43529411764705883
381,18.97340309619904,0,0.6255439610156334,0.5966057563416481,0.8355091476888747,0.8726435233157851,0.5504536257665852,0.5966057563416481,0.8355091476888747,0.5176470588235295,0.5098039215686274,0.49411764705882355,0.5058823529411764,0.5098039215686274,0.5058823529411764,0.5647058823529412,0.5725490196078431
382,18.97535800933838,0,0.6211923620115424,0.5994343046064048,0.8396431845669562,0.8727115716368217,0.5503478258002193,0.5994343046064048,0.8396431845669562,0.5294117647058824,0.49411764705882355,0.4980392156862745,0.49411764705882355,0.4980392156862745,0.4980392156862745,0.4549019607843137,0.20784313725490197
383,19.00341308116913,0,0.6264142897285491,0.5909486687242322,0.8429069016442196,0.8727583289567507,0.5501557611853731,0.5909486687242322,0.8429069016442196,0.5333333333333333,0.4980392156862745,0.5019607843137255,0.49411764705882355,0.5019607843137255,0.5098039215686274,0.5568627450980392,0.6
384,19.03338599205017,0,0.6229330016131788,0.5822454439797577,0.8463881897595898,0.8728142078085481,0.5498568984492326,0.5822454439797577,0.8463881897595898,0.4823529411764706,0.48627450980392156,0.5098039215686274,0.5098039215686274,0.49411764705882355,0.5019607843137255,0.4666666666666667,0.49411764705882355
