,time,gesture,ax,ay,az,qw,qx,qy,qz,e0,e1,e2,e3,e4,e5,e6,e7
0,19.598049998283386,0,0.17624589678281097,0.6207711900858026,0.6305929481526336,0.6831664608312439,0.34284078244239735,0.5667982470174857,0.5780178661516016,0.5058823529411764,0.49411764705882355,0.4980392156862745,0.5098039215686274,0.5019607843137255,0.4980392156862745,0.5058823529411764,0.4980392156862745
1,19.59879302978516,0,0.18152055842977924,0.6244088746716746,0.6322299028637842,0.6837816437921559,0.345103645908153,0.5709536574140581,0.579887797000431,0.5058823529411764,0.5019607843137255,0.5019607843137255,0.5019607843137255,0.4980392156862745,0.4980392156862745,0.5019607843137255,0.5019607843137255
2,19.600490093231198,0,0.1893415866218888,0.6173153893567249,0.6385958527515558,0.6866345040308114,0.3505073619070119,0.5628506067152276,0.587159767322004,0.5058823529411764,0.4980392156862745,0.5019607843137255,0.5019607843137255,0.5058823529411764,0.5019607843137255,0.4980392156862745,0.49411764705882355
3,19.60144102573395,0,0.18952346302870143,0.623863223101291,0.6418697696238389,0.6879666614697195,0.3523226822579625,0.5703303471311151,0.5908996375299478,0.5058823529411764,0.5019607843137255,0.4980392156862745,0.5058823529411764,0.4980392156862745,0.49411764705882355,0.5019607843137255,0.5019607843137255
4,19.602991104125977,0,0.1957075216096967,0.6249545299670491,0.6404146987694828,0.6893927554327958,0.3541415939491195,0.5715769719521436,0.5892374767754327,0.49411764705882355,0.4980392156862745,0.4980392156862745,0.49411764705882355,0.4980392156862745,0.4980392156862745,0.5058823529411764,0.4980392156862745
5,19.618957996368405,0,0.20080029194988855,0.6287741021347066,0.6391415043219393,0.690952537460572,0.3558552844783979,0.575940156698173,0.5877830776049473,0.5019607843137255,0.5019607843137255,0.49411764705882355,0.4980392156862745,0.4980392156862745,0.5019607843137255,0.49411764705882355,0.4980392156862745
6,19.62151908874512,0,0.2053473883697514,0.6336849774431312,0.6438704994985603,0.6926158726343962,0.3573873059569952,0.5815499620100885,0.5931851170776907,0.4980392156862745,0.4980392156862745,0.4980392156862745,0.5058823529411764,0.4980392156862745,0.49411764705882355,0.5019607843137255,0.4980392156862745
7,19.649220108985897,0,0.20607493497190219,0.6360494713064508,0.6462349970868708,0.6944327929188985,0.35855644463446973,0.5842509774913179,0.5958861368140627,0.5019607843137255,0.4980392156862745,0.4980392156862745,0.5019607843137255,0.5019607843137255,0.49411764705882355,0.4980392156862745,0.49411764705882355
8,19.678737044334408,0,0.20880320027380173,0.6367770104586198,0.6526009469746425,0.6963752654357845,0.35941526854033645,0.5850820621237178,0.6031581071356356,0.4980392156862745,0.5019607843137255,0.49411764705882355,0.4980392156862745,0.5058823529411764,0.49411764705882355,0.4980392156862745,0.4980392156862745
9,19.681064009666446,0,0.21171334943249576,0.6320480190069897,0.6549654445629529,0.6984370181051205,0.36000951620051874,0.5796800269061166,0.6058591268720074,0.5019607843137255,0.49411764705882355,0.4980392156862745,0.5019607843137255,0.5019607843137255,0.5058823529411764,0.4980392156862745,0.5019607843137255
10,19.709250092506412,0,0.21280465629825374,0.6295016375618847,0.657148054569478,0.7005589044472026,0.3605054317744081,0.5767712370754304,0.6083523722589225,0.4980392156862745,0.5058823529411764,0.5019607843137255,0.49411764705882355,0.5019607843137255,0.5019607843137255,0.5019607843137255,0.49411764705882355
11,19.738793015480038,0,0.21153146930069214,0.6322299028637842,0.6569661707126836,0.702718984947689,0.36097159539246376,0.579887797000431,0.608144602164608,0.5019607843137255,0.4980392156862745,0.4980392156862745,0.49411764705882355,0.49411764705882355,0.5098039215686274,0.4980392156862745,0.4980392156862745
12,19.741162061691284,0,0.20807566112163275,0.6415060019102499,0.6613313944507246,0.7047860054833468,0.36165010338294046,0.590484097341319,0.6131310971935804,0.49019607843137253,0.4980392156862745,0.5019607843137255,0.5058823529411764,0.49411764705882355,0.5019607843137255,0.4980392156862745,0.5019607843137255
13,19.76938509941101,0,0.20461986039255517,0.6458712219233,0.6640596597526242,0.7067158104412345,0.3625308157414399,0.5954705881151491,0.616247657118581,0.4980392156862745,0.4980392156862745,0.4980392156862745,0.5019607843137255,0.5058823529411764,0.4980392156862745,0.4980392156862745,0.5019607843137255
14,19.79878807067871,0,0.20898508413059622,0.6424154249192133,0.6676973443384961,0.7085081062165249,0.3635436758030816,0.5915229520680333,0.6204030675151535,0.5019607843137255,0.49411764705882355,0.5019607843137255,0.49411764705882355,0.49411764705882355,0.5019607843137255,0.4980392156862745,0.4980392156862745
15,19.80112910270691,0,0.21280465629825374,0.6387777366083504,0.6693343064996286,0.7103073506393949,0.36476236561409203,0.5873675374163184,0.6222730068742677,0.5019607843137255,0.4980392156862745,0.5019607843137255,0.5019607843137255,0.49411764705882355,0.49019607843137253,0.49411764705882355,0.5019607843137255
16,19.82917809486389,0,0.21607856572055492,0.6422335447874097,0.6693343064996286,0.712039874429045,0.36634881461944396,0.5913151862288614,0.6222730068742677,0.5019607843137255,0.49411764705882355,0.4980392156862745,0.4980392156862745,0.5058823529411764,0.5019607843137255,0.5019607843137255,0.5019607843137255
17,19.858779072761536,0,0.221898864037943,0.6469625325140489,0.6711531450675738,0.7137021756032602,0.3681149114828253,0.5967172171913201,0.6243507078174116,0.4980392156862745,0.5019607843137255,0.49411764705882355,0.5058823529411764,0.4980392156862745,0.4980392156862745,0.4980392156862745,0.49411764705882355
18,19.861258029937748,0,0.22408148521944085,0.6551473284197474,0.6724263395151172,0.7153228699948463,0.3699562690502727,0.6060668969663219,0.625805106987897,0.4980392156862745,0.5019607843137255,0.49019607843137253,0.4980392156862745,0.5058823529411764,0.49411764705882355,0.49019607843137253,0.4980392156862745
19,19.889834046363827,0,0.22517279581018984,0.6566023992741036,0.6758821402441948,0.7168709503809545,0.3718029327803238,0.607729057720837,0.6297527472901552,0.49411764705882355,0.49411764705882355,0.4980392156862745,0.5019607843137255,0.5019607843137255,0.4980392156862745,0.49411764705882355,0.5019607843137255
20,19.949234008789066,0,0.23244816125694304,0.6620589298779027,0.6777009825371307,0.7182787217007499,0.3737236189679953,0.6139621775708379,0.6318304524884415,0.5019607843137255,0.4980392156862745,0.4980392156862745,0.49019607843137253,0.5019607843137255,0.4980392156862745,0.5019607843137255,0.4980392156862745
21,19.951043009758,0,0.22899236425285635,0.6646053113230076,0.6800654838504323,0.7195719233107597,0.37551701257003123,0.6168709674015243,0.6345314764799557,0.49411764705882355,0.5019607843137255,0.5019607843137255,0.5058823529411764,0.49411764705882355,0.49019607843137253,0.5019607843137255,0.5058823529411764
22,19.97940599918365,0,0.22971989223005262,0.658603129148825,0.6860676622996239,0.7219145409109817,0.3786325640262771,0.6100145372685799,0.6413879023577574,0.4980392156862745,0.4980392156862745,0.49411764705882355,0.4980392156862745,0.5019607843137255,0.5019607843137255,0.49411764705882355,0.49411764705882355
23,19.98207402229309,0,0.225900323787386,0.6536922501154095,0.68788650459256,0.7230575870551079,0.3800350376937537,0.604404727701522,0.6434656075560438,0.5019607843137255,0.5019607843137255,0.5019607843137255,0.5019607843137255,0.5019607843137255,0.49411764705882355,0.4980392156862745,0.49411764705882355
24,20.009327054023746,0,0.22881047294608003,0.653146598545026,0.6860676622996239,0.7241487757785039,0.381463476240306,0.6037814174185788,0.6413879023577574,0.4980392156862745,0.4980392156862745,0.5019607843137255,0.5019607843137255,0.4980392156862745,0.4980392156862745,0.5019607843137255,0.4980392156862745
25,20.03880500793457,0,0.22371771378086094,0.6493270301023594,0.6858857821678204,0.7251884772785607,0.3829177945630855,0.599418236927692,0.6411801365185855,0.5058823529411764,0.4980392156862745,0.5019607843137255,0.49411764705882355,0.5058823529411764,0.5019607843137255,0.4980392156862745,0.4980392156862745
26,20.04132103919983,0,0.21789741546347285,0.6478719517980215,0.6829756330091263,0.7262709429599861,0.38439989045561346,0.5977560676628921,0.6378558064992705,0.5019607843137255,0.5019607843137255,0.4980392156862745,0.4980392156862745,0.5019607843137255,0.49411764705882355,0.49411764705882355,0.5058823529411764
27,20.069441080093387,0,0.22662786293955497,0.6482357232366015,0.6844307038634824,0.7272833264456762,0.38601026612681966,0.5981716121066631,0.6395179672537856,0.4980392156862745,0.4980392156862745,0.5019607843137255,0.4980392156862745,0.5058823529411764,0.49019607843137253,0.5019607843137255,0.49411764705882355
28,20.09883403778076,0,0.21425972715260985,0.6449618026393275,0.6791560571164778,0.7282817275333587,0.38741064626422334,0.5944317376435772,0.6334926174980989,0.4980392156862745,0.4980392156862745,0.5019607843137255,0.49411764705882355,0.49411764705882355,0.5058823529411764,0.4980392156862745,0.5019607843137255
29,20.10132300853729,0,0.21589668931374228,0.6462349970868708,0.6826118578455554,0.7292594826699965,0.3888148432643819,0.5958861368140627,0.637440257800357,0.49411764705882355,0.4980392156862745,0.4980392156862745,0.5019607843137255,0.5098039215686274,0.5019607843137255,0.4980392156862745,0.4980392156862745
30,20.12942600250244,0,0.2173517676180802,0.6402328149126882,0.6798835925436559,0.7302667599847769,0.39021832369855625,0.5890297066811183,0.6343236978753565,0.5019607843137255,0.5019607843137255,0.49019607843137253,0.49411764705882355,0.5019607843137255,0.5019607843137255,0.49411764705882355,0.4980392156862745
31,20.21894705295563,0,0.20789377726483824,0.6440523833553549,0.6758821402441948,0.7312094187066955,0.3916195140150776,0.5933928871720052,0.6297527472901552,0.49411764705882355,0.4980392156862745,0.4980392156862745,0.5019607843137255,0.5058823529411764,0.4980392156862745,0.5019607843137255,0.5019607843137255
32,20.221017003059387,0,0.20662059026727664,0.6484176070933959,0.6751546048170166,0.7321406013094947,0.39310056314256914,0.5983793822009776,0.6289216669128976,0.4980392156862745,0.49411764705882355,0.5019607843137255,0.5058823529411764,0.4980392156862745,0.5019607843137255,0.5019607843137255,0.5019607843137255
33,20.249502062797546,0,0.18133866712300287,0.6445980349257384,0.6647871951798021,0.7360958242755535,0.3976446020795052,0.5940161974549483,0.6170787374958385,0.5019607843137255,0.4980392156862745,0.49411764705882355,0.5019607843137255,0.48627450980392156,0.4980392156862745,0.4980392156862745,0.5019607843137255
34,20.278747081756595,0,0.18770461701077448,0.654237905410784,0.6638777758958295,0.7370451763365063,0.39912667031360743,0.6050280422396075,0.6160398870242667,0.4980392156862745,0.49019607843137253,0.49019607843137253,0.4980392156862745,0.5058823529411764,0.5058823529411764,0.4980392156862745,0.5019607843137255
35,20.30814099311829,0,0.1937067917349752,0.6620589298779027,0.6684248872156562,0.7378886093922228,0.4009430544501642,0.6139621775708379,0.6212341564026959,0.4980392156862745,0.5019607843137255,0.4980392156862745,0.4980392156862745,0.49019607843137253,0.5058823529411764,0.49411764705882355,0.4980392156862745
36,20.3107670545578,0,0.17733720737355999,0.6604219677167702,0.660058203728172,0.7386447439459537,0.40237118662646193,0.6120922382117238,0.6116767022782373,0.5019607843137255,0.5019607843137255,0.5019607843137255,0.4980392156862745,0.4980392156862745,0.4980392156862745,0.5058823529411764,0.5019607843137255
37,20.339534997940067,0,0.19334303147136805,0.6675154604817016,0.6673335766249072,0.7390499015870661,0.40377501172717256,0.6201952974208391,0.6199875273265247,0.5019607843137255,0.4980392156862745,0.4980392156862745,0.5058823529411764,0.4980392156862745,0.5098039215686274,0.5058823529411764,0.49411764705882355
38,20.428205013275143,0,0.20098218325666495,0.6806111316958248,0.6667879250545236,0.739667007872354,0.40515227537783965,0.6351547825077564,0.6193642170435817,0.4980392156862745,0.4980392156862745,0.4980392156862745,0.5137254901960784,0.4980392156862745,0.49411764705882355,0.5019607843137255,0.4980392156862745
39,20.43049705028534,0,0.18279374170234988,0.6451436939461037,0.6684248872156562,0.7400737994881574,0.4060593057922361,0.5946395162481763,0.6212341564026959,0.49411764705882355,0.5019607843137255,0.5019607843137255,0.4745098039215686,0.5019607843137255,0.49411764705882355,0.49411764705882355,0.49411764705882355
40,20.432816028594967,0,0.2075300095512492,0.6762459079577837,0.6595125484327976,0.7403032325125561,0.4076441403965521,0.630168287478784,0.6110533877401518,0.5058823529411764,0.4980392156862745,0.49411764705882355,0.5254901960784314,0.5098039215686274,0.5058823529411764,0.5058823529411764,0.49411764705882355
41,20.45873999595642,0,0.19261549604418998,0.6771553346917383,0.6473263002276379,0.7403366141048782,0.411799074217173,0.6312071464606407,0.5971327573799489,0.5019607843137255,0.4980392156862745,0.4980392156862745,0.49411764705882355,0.4980392156862745,0.49411764705882355,0.4980392156862745,0.5019607843137255
42,20.4877769947052,0,0.20607493497190219,0.6784285216892997,0.6498726816727429,0.7403301462883926,0.4127606870455083,0.6326615371208414,0.6000415472106351,0.4980392156862745,0.4980392156862745,0.5019607843137255,0.49019607843137253,0.49019607843137253,0.49411764705882355,0.49019607843137253,0.5058823529411764
43,20.48940205574036,0,0.2120771171460848,0.6813386708479938,0.6447799187825329,0.7402174701169859,0.4136185748200416,0.6359858671401564,0.5942239675492628,0.5019607843137255,0.5058823529411764,0.5019607843137255,0.4823529411764706,0.49411764705882355,0.5019607843137255,0.4980392156862745,0.4980392156862745
44,20.5180881023407,0,0.1949799936325005,0.6826118578455554,0.6440523833553549,0.7400253929879339,0.4140846916315306,0.637440257800357,0.5933928871720052,0.5058823529411764,0.4980392156862745,0.49411764705882355,0.4980392156862745,0.5058823529411764,0.49019607843137253,0.5019607843137255,0.5019607843137255
45,20.577901005744934,0,0.20443796908577883,0.6869770853085874,0.6409603503398663,0.7397109805141711,0.4141368766982274,0.6424267570844718,0.5898607870583759,0.5019607843137255,0.4980392156862745,0.5058823529411764,0.5137254901960784,0.49411764705882355,0.49411764705882355,0.5019607843137255,0.4980392156862745
46,20.579673051834106,0,0.19952709005236327,0.6789741732596833,0.6465987648004599,0.7393382725891897,0.41351433872363436,0.6332848474037845,0.5963016770026913,0.5019607843137255,0.5058823529411764,0.5019607843137255,0.5058823529411764,0.5098039215686274,0.4980392156862745,0.49411764705882355,0.4980392156862745
47,20.581986069679264,0,0.19989087266591596,0.6704256096403957,0.6431429640713824,0.7389198771999937,0.41239779360652945,0.6235196274401541,0.5923540367004332,0.5058823529411764,0.5019607843137255,0.49411764705882355,0.48627450980392156,0.5019607843137255,0.49411764705882355,0.5058823529411764,0.4980392156862745
48,20.63888800144196,0,0.18752273315397996,0.6587850130056195,0.6425973087760078,0.7385148174271572,0.4108124488106367,0.6102223073628944,0.5917307221623477,0.5019607843137255,0.5019607843137255,0.49411764705882355,0.4980392156862745,0.49411764705882355,0.4980392156862745,0.49411764705882355,0.49411764705882355
49,20.64025902748108,0,0.19607130422324942,0.654237905410784,0.6467806486572544,0.7379174805335745,0.40920211143571233,0.6050280422396075,0.5965094470970057,0.49411764705882355,0.4980392156862745,0.4980392156862745,0.5019607843137255,0.49411764705882355,0.5019607843137255,0.4980392156862745,0.5019607843137255
50,20.642699003219604,0,0.1938886830417516,0.657875593721647,0.6509639922634919,0.7373158033947188,0.4075143389789429,0.6091834568913224,0.6012881762868062,0.4980392156862745,0.4980392156862745,0.49411764705882355,0.5019607843137255,0.5019607843137255,0.5019607843137255,0.4980392156862745,0.5019607843137255
51,20.668251037597656,0,0.19625318063006209,0.655692979990131,0.6489632623887704,0.736536197475373,0.40569629703889754,0.6066902072492649,0.5990026967390631,0.5019607843137255,0.49411764705882355,0.4980392156862745,0.4980392156862745,0.5019607843137255,0.49019607843137253,0.4980392156862745,0.5019607843137255
52,20.669791102409363,0,0.18988722329230862,0.6518734115474645,0.6524190631178479,0.7357265928019331,0.4035930677942908,0.602327026758378,0.6029503370413213,0.49411764705882355,0.49019607843137253,0.4980392156862745,0.49019607843137253,0.4980392156862745,0.5019607843137255,0.49411764705882355,0.5019607843137255
53,20.698025107383724,0,0.19407057434852787,0.6462349970868708,0.6555110961333366,0.7348634797125022,0.40138622327855666,0.5958861368140627,0.6064824371549505,0.49411764705882355,0.5019607843137255,0.5019607843137255,0.49411764705882355,0.4980392156862745,0.5058823529411764,0.4980392156862745,0.49411764705882355
54,20.72830605506897,0,0.19770825148441826,0.6435067317849713,0.6618770460211081,0.7339667509979161,0.39922884479350995,0.5927695768890621,0.6137544074765237,0.5058823529411764,0.5019607843137255,0.49411764705882355,0.4980392156862745,0.5019607843137255,0.4980392156862745,0.5019607843137255,0.5019607843137255
55,20.729938030242923,0,0.1951618849392769,0.6424154249192133,0.6649690790365967,0.7330073695662683,0.39709883325696776,0.5915229520680333,0.6172865075901529,0.4980392156862745,0.5019607843137255,0.49411764705882355,0.4980392156862745,0.5019607843137255,0.5058823529411764,0.5019607843137255,0.49411764705882355
56,20.758235096931454,0,0.18988722329230862,0.6411422341966608,0.6680611120520852,0.7320463030982204,0.39496905575325897,0.5900685571526902,0.6208186077037823,0.48627450980392156,0.49411764705882355,0.5058823529411764,0.5019607843137255,0.49411764705882355,0.4980392156862745,0.5019607843137255,0.5019607843137255
57,20.78780400753021,0,0.19334303147136805,0.6395052757605193,0.6709712612107792,0.731036191858585,0.39291672822439383,0.5881986220487183,0.6241429377230973,0.5098039215686274,0.4980392156862745,0.4980392156862745,0.4980392156862745,0.4980392156862745,0.49411764705882355,0.4980392156862745,0.49411764705882355
58,20.78945803642273,0,0.19079664257628115,0.6313204761298298,0.6713350363743502,0.7301141450465718,0.390893037804047,0.5788489380185743,0.6245584864220108,0.49411764705882355,0.49411764705882355,0.5058823529411764,0.5019607843137255,0.4980392156862745,0.4980392156862745,0.5019607843137255,0.5098039215686274
59,20.848716020584106,0,0.19443433833712603,0.6258639529760126,0.6786104055460943,0.7291898855604976,0.3892808664627376,0.572615826678858,0.6328693072151558,0.5019607843137255,0.4980392156862745,0.4980392156862745,0.4980392156862745,0.48627450980392156,0.5058823529411764,0.4980392156862745,0.5019607843137255
60,20.851008057594303,0,0.18679519772680192,0.6353219358792728,0.6847944715770714,0.7282230746501763,0.3880092511902485,0.5834198971140604,0.6399335074424144,0.4980392156862745,0.5019607843137255,0.4980392156862745,0.4980392156862745,0.49411764705882355,0.4980392156862745,0.5058823529411764,0.4980392156862745
61,20.878745079040527,0,0.19952709005236327,0.6216806093697751,0.6860676622996239,0.7264630498750351,0.38606014490632223,0.5678370974890576,0.6413879023577574,0.5019607843137255,0.5058823529411764,0.4980392156862745,0.4980392156862745,0.5019607843137255,0.49411764705882355,0.4980392156862745,0.5019607843137255
62,20.90856802463532,0,0.1987995620751671,0.6164059663477615,0.6877046207357654,0.7256976306005335,0.38554303446801536,0.5618117519885133,0.6432578374617294,0.4980392156862745,0.49411764705882355,0.49411764705882355,0.5019607843137255,0.4980392156862745,0.49411764705882355,0.4980392156862745,0.49411764705882355
63,20.910686016082767,0,0.19661694089366924,0.6196798794950537,0.6902510021808704,0.7249826347637648,0.38543679207195486,0.5655516179413146,0.6461666272924155,0.4980392156862745,0.5058823529411764,0.4980392156862745,0.5058823529411764,0.5019607843137255,0.5098039215686274,0.4980392156862745,0.5019607843137255
64,20.938634037971497,0,0.20152781992708477,0.6300472891322683,0.695889416641464,0.7243014077372788,0.38569766208858736,0.5773945473583736,0.652607517236731,0.49411764705882355,0.4980392156862745,0.4980392156862745,0.5019607843137255,0.5058823529411764,0.49411764705882355,0.49411764705882355,0.5019607843137255
65,20.968026995658875,0,0.21189523328929027,0.6347762843088892,0.6986176893933453,0.7236257762230812,0.3862431500717247,0.5827965868311172,0.6557240856720165,0.49411764705882355,0.49411764705882355,0.4980392156862745,0.4980392156862745,0.5058823529411764,0.5058823529411764,0.5019607843137255,0.4980392156862745
66,20.97011804580689,0,0.2146234985911898,0.6313204761298298,0.6986176893933453,0.7230290350494379,0.386970264554119,0.5788489380185743,0.6557240856720165,0.5058823529411764,0.4980392156862745,0.49019607843137253,0.4980392156862745,0.49411764705882355,0.4980392156862745,0.5019607843137255,0.49019607843137253
67,20.998520016670227,0,0.2131684165618609,0.6315023674366061,0.6993452173705416,0.7225356725610035,0.38793122464360635,0.5790567166231735,0.6565551575389891,0.49411764705882355,0.4980392156862745,0.4980392156862745,0.49411764705882355,0.5058823529411764,0.49411764705882355,0.5019607843137255,0.5019607843137255
68,21.058033108711246,0,0.2131684165618609,0.6369588943154142,0.6980720266479891,0.7221037713497517,0.3891761516628076,0.5852898322180323,0.655100762623646,0.5019607843137255,0.49411764705882355,0.5019607843137255,0.49411764705882355,0.4980392156862745,0.49019607843137253,0.4980392156862745,0.49411764705882355
69,21.0604100227356,0,0.2146234985911898,0.6418697696238389,0.7013459472452631,0.7217629727378133,0.39065719653515674,0.5908996375299478,0.6588406370867321,0.4980392156862745,0.5019607843137255,0.5058823529411764,0.4980392156862745,0.5058823529411764,0.5019607843137255,0.5019607843137255,0.5019607843137255
70,21.089097023010254,0,0.2197162577564089,0.6453255740779074,0.7018915988156466,0.7214736102875047,0.392242186026657,0.5948472820873483,0.6594639473696753,0.4980392156862745,0.4980392156862745,0.49411764705882355,0.5019607843137255,0.49019607843137253,0.4980392156862745,0.5019607843137255,0.5019607843137255
71,21.090550065040592,0,0.2222626466514958,0.6462349970868708,0.7035285572517882,0.7212345691515111,0.39393129459814785,0.5958861368140627,0.6613338824736471,0.5058823529411764,0.5019607843137255,0.49411764705882355,0.5058823529411764,0.49411764705882355,0.5019607843137255,0.4980392156862745,0.4980392156862745
72,21.092374086380005,0,0.22535467221700248,0.6465987648004599,0.7033466771199846,0.7210792862390056,0.3958012169366924,0.5963016770026913,0.6611261166344752,0.4980392156862745,0.49411764705882355,0.49411764705882355,0.5019607843137255,0.49019607843137253,0.4980392156862745,0.4980392156862745,0.5019607843137255
73,21.118577003479004,0,0.22844670523249103,0.6465987648004599,0.6960713004982585,0.7209846093200556,0.3977737137385274,0.5963016770026913,0.6528152873310454,0.5058823529411764,0.5058823529411764,0.49411764705882355,0.5058823529411764,0.5058823529411764,0.5019607843137255,0.5019607843137255,0.49411764705882355
74,21.147948026657104,0,0.22662786293955497,0.6509639922634919,0.6986176893933453,0.7209579295770525,0.3997737540772775,0.6012881762868062,0.6557240856720165,0.5019607843137255,0.49411764705882355,0.5019607843137255,0.5019607843137255,0.5019607843137255,0.5019607843137255,0.4980392156862745,0.4980392156862745
75,21.149892091751102,0,0.225900323787386,0.6573299384262725,0.6955256489278749,0.7209937025594172,0.40174994859787955,0.6085601423532369,0.6521919770481022,0.49411764705882355,0.4980392156862745,0.4980392156862745,0.4980392156862745,0.4980392156862745,0.4980392156862745,0.4980392156862745,0.5019607843137255
76,21.178201079368588,0,0.23153873079799772,0.6591487807192087,0.695161877489295,0.7210615720810916,0.40356587147699746,0.6106378475515231,0.6517764326043312,0.4980392156862745,0.5019607843137255,0.5019607843137255,0.5019607843137255,0.5058823529411764,0.49411764705882355,0.5019607843137255,0.5019607843137255
77,21.207900047302246,0,0.2319025134115504,0.660058203728172,0.6960713004982585,0.7211631721167666,0.4052024647827393,0.6116767022782373,0.6528152873310454,0.5019607843137255,0.4980392156862745,0.5019607843137255,0.49019607843137253,0.5019607843137255,0.5019607843137255,0.4980392156862745,0.4980392156862745
78,21.209729075431824,0,0.23335758426590653,0.6620589298779027,0.6964350682118475,0.7212907668175145,0.4067091681639095,0.6139621775708379,0.6532308275196742,0.4980392156862745,0.4980392156862745,0.49411764705882355,0.5019607843137255,0.4980392156862745,0.4980392156862745,0.5019607843137255,0.5058823529411764
79,21.2381500005722,0,0.23281193269552297,0.6644234274662131,0.6998908689409251,0.721473712410923,0.40808559184946197,0.6166631973072098,0.6571784678219322,0.4980392156862745,0.49411764705882355,0.5019607843137255,0.5019607843137255,0.5019607843137255,0.4980392156862745,0.49019607843137253,0.4980392156862745
80,21.32811999320984,0,0.23208439354335403,0.6642415436094187,0.6995271086773179,0.7217112344610711,0.4093838166551041,0.6164554272128954,0.6567629361435884,0.5058823529411764,0.4980392156862745,0.4980392156862745,0.5019607843137255,0.4980392156862745,0.49019607843137253,0.49411764705882355,0.49019607843137253
81,21.33017301559448,0,0.23626773342460056,0.6646053113230076,0.7002546366545142,0.7219707811284094,0.4106305499822646,0.6168709674015243,0.6575940080105611,0.49411764705882355,0.5019607843137255,0.49411764705882355,0.49411764705882355,0.49411764705882355,0.5058823529411764,0.49411764705882355,0.5019607843137255
82,21.33253002166748,0,0.23990541801047266,0.6669698089113182,0.7008002919498886,0.7222779173086259,0.41185175032730564,0.619571987137896,0.6582173225486466,0.5098039215686274,0.5019607843137255,0.5019607843137255,0.49411764705882355,0.5019607843137255,0.5019607843137255,0.4980392156862745,0.4980392156862745
83,21.35824203491211,0,0.24208803174198865,0.6724263395151172,0.7011640559384866,0.723737201382615,0.41520180268257806,0.625805106987897,0.6586328584821329,0.4980392156862745,0.5019607843137255,0.5019607843137255,0.5098039215686274,0.5019607843137255,0.4980392156862745,0.4980392156862745,0.4980392156862745
84,21.38823902606964,0,0.24099672487623064,0.6729719910855008,0.6993452173705416,0.7244050204553208,0.41629331224371285,0.6264284172708402,0.6565551575389891,0.5019607843137255,0.4980392156862745,0.5019607843137255,0.4980392156862745,0.49411764705882355,0.5019607843137255,0.5019607843137255,0.49411764705882355
85,21.390332102775574,0,0.236813392444966,0.6716988003629483,0.6982539067797926,0.7252083913451085,0.41733235887735054,0.6249740223554971,0.6553085284628181,0.49019607843137253,0.4980392156862745,0.4980392156862745,0.49411764705882355,0.5058823529411764,0.5019607843137255,0.4980392156862745,0.5058823529411764
86,21.418526053428646,0,0.23772281172893847,0.6757002563874003,0.7002546366545142,0.7260486543197185,0.41834457002977243,0.6295449771958408,0.6575940080105611,0.4980392156862745,0.4980392156862745,0.49019607843137253,0.4980392156862745,0.49411764705882355,0.49411764705882355,0.4980392156862745,0.49411764705882355
87,21.448262095451355,0,0.23517642655884258,0.6784285216892997,0.6973444874958201,0.7269730840114896,0.41925441479536857,0.6326615371208414,0.6542696779912461,0.49411764705882355,0.4980392156862745,0.5058823529411764,0.5019607843137255,0.4980392156862745,0.5019607843137255,0.5019607843137255,0.5098039215686274
88,21.45095503330231,0,0.23353946067271916,0.6767915595281674,0.7004365279612905,0.7279650981303926,0.42013711175229496,0.6307915977617271,0.6578017866151602,0.4980392156862745,0.5058823529411764,0.4980392156862745,0.49411764705882355,0.4980392156862745,0.5019607843137255,0.49411764705882355,0.5019607843137255
89,21.508020043373108,0,0.2353583104156371,0.6784285216892997,0.6986176893933453,0.7289786602905344,0.42112403161468703,0.6326615371208414,0.6557240856720165,0.4980392156862745,0.4980392156862745,0.4980392156862745,0.5019607843137255,0.49019607843137253,0.4980392156862745,0.5019607843137255,0.4980392156862745
90,21.539535999298096,0,0.23281193269552297,0.6742451855330442,0.6973444874958201,0.7300637811808328,0.4220594131920309,0.6278828164413257,0.6542696779912461,0.4980392156862745,0.5019607843137255,0.5019607843137255,0.4980392156862745,0.5019607843137255,0.5019607843137255,0.5019607843137255,0.4980392156862745
91,21.569180011749268,0,0.2373590291153858,0.6851582392906604,0.688250272306149,0.7333725203583035,0.4253313802796957,0.6403490476310432,0.6438811477446724,0.5019607843137255,0.4980392156862745,0.5058823529411764,0.4980392156862745,0.49411764705882355,0.4980392156862745,0.5019607843137255,0.4980392156862745
92,21.57215702533722,0,0.2373590291153858,0.6860676622996239,0.6898872344672814,0.7345380251441473,0.426448382399097,0.6413879023577574,0.6457510871037867,0.49411764705882355,0.4980392156862745,0.5019607843137255,0.49411764705882355,0.4980392156862745,0.4980392156862745,0.5019607843137255,0.4980392156862745
93,21.598097085952762,0,0.23590397316099337,0.6913423053216375,0.688250272306149,0.7357032320700213,0.4276173130001069,0.6474132478583018,0.6438811477446724,0.49411764705882355,0.5019607843137255,0.5019607843137255,0.5019607843137255,0.5019607843137255,0.49411764705882355,0.5058823529411764,0.5058823529411764
94,21.62814605236053,0,0.235722081854217,0.6984357980865691,0.6909785376080485,0.736872502656911,0.4286821666470363,0.6555163070674171,0.646997707669673,0.4980392156862745,0.4980392156862745,0.49411764705882355,0.5137254901960784,0.5019607843137255,0.4980392156862745,0.4980392156862745,0.4980392156862745
95,21.630199074745175,0,0.23626773342460056,0.6900691183240759,0.6895234593037105,0.7380926647472004,0.42961719802615866,0.6459588571981012,0.6453355384048732,0.4980392156862745,0.5019607843137255,0.4980392156862745,0.49019607843137253,0.5019607843137255,0.4980392156862745,0.5098039215686274,0.4980392156862745
96,21.688796043396,0,0.2364496098314132,0.6884321561629435,0.6900691183240759,0.7393126438663654,0.43057820534772695,0.6440889178389869,0.6459588571981012,0.5019607843137255,0.49019607843137253,0.5019607843137255,0.5058823529411764,0.4980392156862745,0.4980392156862745,0.49411764705882355,0.5019607843137255
97,21.690115094184875,0,0.23590397316099337,0.6917060804852084,0.6902510021808704,0.7405319506730275,0.4315392275622936,0.6478287965572154,0.6461666272924155,0.4980392156862745,0.4980392156862745,0.5058823529411764,0.4980392156862745,0.4980392156862745,0.4980392156862745,0.49411764705882355,0.4980392156862745
98,21.77885901927948,0,0.2342670035498791,0.695161877489295,0.6935249190531535,0.7428969758532582,0.43369489548008566,0.6517764326043312,0.6499064975003592,0.49411764705882355,0.4980392156862745,0.49019607843137253,0.4980392156862745,0.5019607843137255,0.4980392156862745,0.5019607843137255,0.4980392156862745
99,21.83871006965637,0,0.2309930941275779,0.691160421464843,0.688614040019738,0.7440726504294971,0.4347856089040728,0.6472054777639874,0.6442966879333013,0.4980392156862745,0.5058823529411764,0.5019607843137255,0.4980392156862745,0.5019607843137255,0.5019607843137255,0.4980392156862745,0.4980392156862745
100,21.868957996368408,0,0.2304474351072125,0.693343035196359,0.6962531843550531,0.7510576582010893,0.44481118103350265,0.6496987274060448,0.6530230574253597,0.4980392156862745,0.5019607843137255,0.4980392156862745,0.5058823529411764,0.4980392156862745,0.5019607843137255,0.5019607843137255,0.5019607843137255
101,21.8717041015625,0,0.23517642655884258,0.69297926748277,0.6973444874958201,0.7521793562956705,0.4473826057266728,0.6492831872174161,0.6542696779912461,0.4980392156862745,0.5058823529411764,0.4980392156862745,0.5058823529411764,0.4980392156862745,0.4980392156862745,0.4980392156862745,0.5019607843137255
102,21.89815902709961,0,0.235722081854217,0.7006184080930942,0.6980720266479891,0.7532719790020637,0.4502397245118671,0.6580095524543321,0.655100762623646,0.49411764705882355,0.4980392156862745,0.49019607843137253,0.49411764705882355,0.49411764705882355,0.5019607843137255,0.5019607843137255,0.49411764705882355
103,21.958093047142032,0,0.2364496098314132,0.7040742050971807,0.6946162296439025,0.7543733247504275,0.45340784569968506,0.6619571885014479,0.6511531265765304,0.4980392156862745,0.4980392156862745,0.5058823529411764,0.4980392156862745,0.49411764705882355,0.5019607843137255,0.5019607843137255,0.5019607843137255
104,21.9600510597229,0,0.24372499017813018,0.705893043665126,0.6917060804852084,0.7554463695465244,0.45681062437577064,0.6640348894445917,0.6478287965572154,0.5019607843137255,0.4980392156862745,0.4980392156862745,0.5058823529411764,0.4980392156862745,0.4980392156862745,0.4980392156862745,0.5019607843137255
105,21.962146997451786,0,0.2500909363409109,0.7098945034145688,0.6924336084624045,0.7564824116240961,0.4604466405990969,0.6686058485400778,0.6486598684241881,0.5019607843137255,0.5019607843137255,0.49411764705882355,0.5019607843137255,0.5019607843137255,0.49411764705882355,0.49411764705882355,0.49411764705882355
106,21.98827600479126,0,0.25682065394227144,0.7135321954504228,0.6877046207357654,0.7573947737319506,0.46421291736989995,0.6727612674469351,0.6432578374617294,0.5058823529411764,0.49019607843137253,0.5019607843137255,0.49411764705882355,0.4980392156862745,0.49411764705882355,0.4980392156862745,0.5019607843137255
107,21.990302085876465,0,0.2624590758528469,0.7169880036294822,0.6864314300132129,0.7582270498042295,0.46810895002828823,0.676708916259478,0.6418034425463863,0.5019607843137255,0.49411764705882355,0.49411764705882355,0.49411764705882355,0.4980392156862745,0.49411764705882355,0.4980392156862745,0.49411764705882355
108,22.018176078796387,0,0.26827937417023495,0.7177155316066783,0.6840669361498933,0.7590089875416239,0.4720311360685616,0.6775399881264508,0.6391024270651569,0.4980392156862745,0.5058823529411764,0.5019607843137255,0.5254901960784314,0.5254901960784314,0.5137254901960784,0.5019607843137255,0.4980392156862745
109,22.048274040222168,0,0.2742815488944357,0.7260822113691715,0.6787922894028888,0.7596551309188181,0.47605663271176496,0.6870974379957667,0.63307707730947,0.4980392156862745,0.5019607843137255,0.4980392156862745,0.49411764705882355,0.49019607843137253,0.49019607843137253,0.5019607843137255,0.4980392156862745
110,22.050507068634033,0,0.2768279377895226,0.731356858116176,0.6755183725306056,0.7602321920587469,0.47992729578550275,0.6931227877514535,0.6293372071015265,0.5019607843137255,0.4980392156862745,0.4980392156862745,0.49411764705882355,0.49411764705882355,0.49411764705882355,0.5019607843137255,0.5019607843137255
111,22.108004093170166,0,0.27737358935990614,0.7349945352520663,0.6740632942262679,0.7607709569168534,0.483484753994898,0.697278189637741,0.6276750378367266,0.4980392156862745,0.4980392156862745,0.49411764705882355,0.48627450980392156,0.5019607843137255,0.5058823529411764,0.4980392156862745,0.5019607843137255
112,22.1103709936142,0,0.278464899950655,0.7397235378786691,0.6740632942262679,0.7612951904635792,0.4866541287476742,0.7026802376207696,0.6276750378367266,0.5019607843137255,0.4980392156862745,0.4980392156862745,0.5019607843137255,0.5058823529411764,0.4980392156862745,0.4980392156862745,0.5019607843137255
113,22.112320065498352,0,0.2839214156544904,0.7400873055922581,0.6729719910855008,0.7618607839946733,0.48940640592969425,0.7030957778093984,0.6264284172708402,0.49411764705882355,0.4980392156862745,0.49411764705882355,0.49411764705882355,0.49411764705882355,0.49411764705882355,0.49019607843137253,0.5019607843137255
114,22.138038992881775,0,0.2808293900889837,0.7453619523392626,0.6727901072287062,0.7623759668534618,0.4918211950005822,0.709121127565085,0.6262206471765258,0.5058823529411764,0.4980392156862745,0.49411764705882355,0.5019607843137255,0.4980392156862745,0.49411764705882355,0.5019607843137255,0.49411764705882355
115,22.168416023254395,0,0.27919242792785126,0.7439068740349247,0.6789741732596833,0.762955985317376,0.49387444164021105,0.7074589583002853,0.6332848474037845,0.4980392156862745,0.5019607843137255,0.4980392156862745,0.5019607843137255,0.49019607843137253,0.5019607843137255,0.4980392156862745,0.4980392156862745
116,22.17078006267548,0,0.27991997080501113,0.7437249827281484,0.6782466378325053,0.7634902482347968,0.49571662470528893,0.7072511796956858,0.632453767026527,0.4980392156862745,0.49411764705882355,0.5019607843137255,0.49411764705882355,0.4980392156862745,0.49411764705882355,0.4980392156862745,0.5019607843137255
117,22.198098063468933,0,0.2808293900889837,0.7448162933188973,0.6800654838504323,0.7639565437622676,0.4974825300872612,0.7084978087718571,0.6345314764799557,0.4980392156862745,0.4980392156862745,0.4980392156862745,0.49411764705882355,0.5058823529411764,0.4980392156862745,0.49411764705882355,0.4980392156862745
118,22.22825002670288,0,0.28283011996370516,0.7471807946321988,0.6807930118276284,0.764358935560804,0.49925095451354884,0.7111988327633713,0.6353625483469284,0.49411764705882355,0.4980392156862745,0.5019607843137255,0.49411764705882355,0.5019607843137255,0.5019607843137255,0.5019607843137255,0.4980392156862745
119,22.230469107627872,0,0.28774099527212976,0.7506365916362855,0.6809749031344048,0.7646844965077196,0.5011447311805264,0.7151464688104869,0.6355703269515275,0.5019607843137255,0.4980392156862745,0.5019607843137255,0.49411764705882355,0.49411764705882355,0.4980392156862745,0.5019607843137255,0.5019607843137255
120,22.258121013641357,0,0.2884685344242987,0.7513641345134452,0.6800654838504323,0.7649077425550327,0.5030956331345559,0.7159775576980293,0.6345314764799557,0.5058823529411764,0.49411764705882355,0.5019607843137255,0.5058823529411764,0.4980392156862745,0.5019607843137255,0.5058823529411764,0.5019607843137255
121,22.288388013839718,0,0.2935612935895178,0.7560931259650753,0.6780647539757108,0.7650245249388792,0.5050929842232936,0.7213795929156305,0.6322459969322125,0.5058823529411764,0.5019607843137255,0.4980392156862745,0.49411764705882355,0.4980392156862745,0.4980392156862745,0.4980392156862745,0.49411764705882355
122,22.29034006595612,0,0.2922881028669653,0.7557293619764771,0.6715169165061537,0.7650109510345443,0.5070953946763743,0.7209640569821442,0.6247662522611828,0.49411764705882355,0.5019607843137255,0.49411764705882355,0.5019607843137255,0.49411764705882355,0.5019607843137255,0.4980392156862745,0.5019607843137255
123,22.31822907924652,0,0.29974536334548585,0.7590032751237693,0.6687886512042542,0.7648969983204104,0.5091451648646422,0.7247039229349455,0.6216496923361822,0.4980392156862745,0.5019607843137255,0.4980392156862745,0.4980392156862745,0.5019607843137255,0.5058823529411764,0.49411764705882355,0.4980392156862745
124,22.348169088363647,0,0.3008366739362348,0.7619134242824634,0.6662422660341581,0.764643945000412,0.511328321002498,0.7280282529542604,0.6187408982503536,0.5019607843137255,0.49411764705882355,0.4980392156862745,0.4980392156862745,0.4980392156862745,0.4980392156862745,0.5019607843137255,0.4980392156862745
125,22.350481033325195,0,0.30120043419984194,0.7677337225998515,0.66114951059393,0.7642455487806125,0.513482103892196,0.7346769129928903,0.6129233270992661,0.5019607843137255,0.4980392156862745,0.4980392156862745,0.4980392156862745,0.49411764705882355,0.49411764705882355,0.4980392156862745,0.49411764705882355
126,22.378576040267944,0,0.2991997080501114,0.7764641700759336,0.6602400875849666,0.7637856232013513,0.5154837271439281,0.7446499030508351,0.6118844723725518,0.4980392156862745,0.4980392156862745,0.4980392156862745,0.5019607843137255,0.5098039215686274,0.5019607843137255,0.5019607843137255,0.5019607843137255
127,22.408621072769165,0,0.2957439035960429,0.7799199745300021,0.657148054569478,0.7632974051801084,0.5171212846649433,0.7485975476082355,0.6083523722589225,0.5019607843137255,0.4980392156862745,0.4980392156862745,0.4980392156862745,0.49411764705882355,0.5019607843137255,0.5019607843137255,0.5019607843137255
128,22.411011099815372,0,0.2933794097327233,0.773008365621865,0.6496907978159485,0.7627698951737154,0.5185478764796833,0.7407022584934346,0.5998337771163207,0.4980392156862745,0.49411764705882355,0.49411764705882355,0.49411764705882355,0.5058823529411764,0.4980392156862745,0.4980392156862745,0.5019607843137255
129,22.43862807750702,0,0.2893779537082713,0.7799199745300021,0.6453255740779074,0.7621329684350132,0.5199210790224202,0.7485975476082355,0.5948472820873483,0.49411764705882355,0.4980392156862745,0.4980392156862745,0.5019607843137255,0.4980392156862745,0.4980392156862745,0.4980392156862745,0.49411764705882355
130,22.469022035598755,0,0.2811931578025727,0.7864678008245862,0.6391415043219393,0.7614950119518442,0.52088486878162,0.7560772795138382,0.5877830776049473,0.5019607843137255,0.4980392156862745,0.4980392156862745,0.49411764705882355,0.4980392156862745,0.5058823529411764,0.4980392156862745,0.4980392156862745
131,22.47135901451111,0,0.271189523328929,0.7831938914022851,0.6384139688947613,0.7609952880254846,0.5211430155071007,0.7523374178161794,0.5869519972276898,0.4980392156862745,0.4980392156862745,0.5019607843137255,0.5058823529411764,0.5019607843137255,0.49411764705882355,0.4980392156862745,0.49411764705882355
132,22.49836409091949,0,0.26482357344115737,0.779556203091422,0.6380502011811723,0.7606113635450716,0.520702918891539,0.7481820031644645,0.5865364570390609,0.5019607843137255,0.5019607843137255,0.4980392156862745,0.5019607843137255,0.4980392156862745,0.4980392156862745,0.49411764705882355,0.5058823529411764
133,22.528502106666565,0,0.2590032751237693,0.769006905872422,0.6380502011811723,0.7603303964907671,0.5195612939649826,0.7361312993979485,0.5865364570390609,0.5019607843137255,0.49411764705882355,0.4980392156862745,0.4980392156862745,0.49019607843137253,0.4980392156862745,0.5019607843137255,0.4980392156862745
134,22.53134500980377,0,0.25445616380394287,0.7600945819895273,0.6444161510689439,0.7601156522180187,0.5180791427556031,0.7259505477559741,0.593808427360634,0.5019607843137255,0.5058823529411764,0.5058823529411764,0.4980392156862745,0.5019607843137255,0.5019607843137255,0.5058823529411764,0.49411764705882355
135,22.558609008789066,0,0.2500909363409109,0.7544561600789519,0.6513277562520899,0.759909733110659,0.5164952723665606,0.7195096493013738,0.6017037122202925,0.5019607843137255,0.5019607843137255,0.4980392156862745,0.5098039215686274,0.5058823529411764,0.49411764705882355,0.5019607843137255,0.4980392156862745
136,22.58872699737549,0,0.24899962575016196,0.7479083337843677,0.6500545655295374,0.7596446419927411,0.5149876158334872,0.7120299173957712,0.6002493173049496,0.49019607843137253,0.5058823529411764,0.4980392156862745,0.5058823529411764,0.4980392156862745,0.4980392156862745,0.5019607843137255,0.4980392156862745
137,22.59110903739929,0,0.2477264462025822,0.7460894952164226,0.652782830831437,0.7593449735874801,0.5135878782225896,0.7099522164526274,0.60336587722995,0.5058823529411764,0.5019607843137255,0.5019607843137255,0.5019607843137255,0.4980392156862745,0.4980392156862745,0.49411764705882355,0.5019607843137255
138,22.6181880235672,0,0.2524554376542123,0.7459076039096462,0.6575118185580762,0.7590744316321162,0.5123387301021031,0.7097444378480282,0.6087679081924088,0.4980392156862745,0.5019607843137255,0.4980392156862745,0.4980392156862745,0.49411764705882355,0.49411764705882355,0.49019607843137253,0.5019607843137255
139,22.648186087608337,0,0.2584576198283949,0.7413604963148106,0.658966896862414,0.7587780184108099,0.5112772592934014,0.7045501727247414,0.6104300774572087,0.49411764705882355,0.49411764705882355,0.4980392156862745,0.5019607843137255,0.4980392156862745,0.4980392156862745,0.4980392156862745,0.4980392156862745
140,22.650277018547055,0,0.25954892669415286,0.7420880354669797,0.6598763198713776,0.7584607549916226,0.5104708544870648,0.7053812573571413,0.611468932183923,0.4980392156862745,0.5019607843137255,0.4980392156862745,0.5019607843137255,0.49411764705882355,0.5019607843137255,0.4980392156862745,0.4980392156862745
141,22.678271055221558,0,0.2622771919960524,0.7439068740349247,0.65605674770372,0.7581175096727898,0.5100280941523451,0.7074589583002853,0.6071057474378937,0.5019607843137255,0.49411764705882355,0.49411764705882355,0.48627450980392156,0.4980392156862745,0.4980392156862745,0.5019607843137255,0.4980392156862745
142,22.70873010158539,0,0.25445616380394287,0.7462713716232353,0.6491451462455649,0.7577878169825799,0.5095882868864682,0.710159978036657,0.5992104668333775,0.5058823529411764,0.49411764705882355,0.49411764705882355,0.4980392156862745,0.5019607843137255,0.5019607843137255,0.5019607843137255,0.5019607843137255
143,22.71084201335907,0,0.24881774934334927,0.7491815207819293,0.6475081840844324,0.7575776129467985,0.508886490501501,0.713484308055972,0.5973405274742632,0.5019607843137255,0.5019607843137255,0.4980392156862745,0.49411764705882355,0.4980392156862745,0.5019607843137255,0.4980392156862745,0.49411764705882355
144,22.73812007904053,0,0.24736267848899315,0.7442706454735047,0.6464168809436653,0.757493220707089,0.5077942550130684,0.7078745027440563,0.596093906908377,0.49019607843137253,0.4980392156862745,0.4980392156862745,0.5019607843137255,0.5058823529411764,0.4980392156862745,0.5019607843137255,0.4980392156862745
145,22.769137024879452,0,0.2460894765914679,0.7353583178656189,0.6509639922634919,0.7575693026536431,0.5064173292207099,0.6976937468469395,0.6012881762868062,0.5019607843137255,0.49411764705882355,0.5019607843137255,0.5019607843137255,0.4980392156862745,0.4980392156862745,0.4980392156862745,0.5058823529411764
146,22.77044403553009,0,0.2428155671691667,0.7266278703895368,0.65678429058088,0.7577265727176609,0.5048592875461854,0.6877207567889947,0.607936836325436,0.5019607843137255,0.5019607843137255,0.4980392156862745,0.49411764705882355,0.4980392156862745,0.4980392156862745,0.4980392156862745,0.4980392156862745
147,22.79822909832001,0,0.23990541801047266,0.729901783536829,0.6624226975914916,0.7578881532409549,0.5033280490137942,0.691460622741796,0.6143777177594668,0.4980392156862745,0.5058823529411764,0.49411764705882355,0.49411764705882355,0.5019607843137255,0.5058823529411764,0.4980392156862745,0.4980392156862745
148,22.828302025794983,0,0.2364496098314132,0.724445249208039,0.6704256096403957,0.7581685543613169,0.5016907382910396,0.6852274986366524,0.6235196274401541,0.5058823529411764,0.4980392156862745,0.5019607843137255,0.5019607843137255,0.5058823529411764,0.4980392156862745,0.4980392156862745,0.4980392156862745
149,22.830344080924988,0,0.23772281172893847,0.7198981527881763,0.6736995265126788,0.7585361135639644,0.5000811881174638,0.6800332462787929,0.6272594976480977,0.49411764705882355,0.4980392156862745,0.49019607843137253,0.49411764705882355,0.5058823529411764,0.5019607843137255,0.5019607843137255,0.4980392156862745
150,22.85805606842041,0,0.24136048886482878,0.7178974229134547,0.6749727135102404,0.758954628097148,0.49854933684456343,0.6777477667310499,0.6287138883082984,0.5019607843137255,0.4980392156862745,0.49019607843137253,0.49411764705882355,0.49411764705882355,0.49411764705882355,0.5019607843137255,0.4980392156862745
151,22.88840210437775,0,0.24245179945557765,0.7144416147343954,0.6767915595281674,0.7594176726958064,0.4971200217386717,0.6738001179185069,0.6307915977617271,0.49019607843137253,0.49019607843137253,0.5019607843137255,0.5019607843137255,0.4980392156862745,0.5019607843137255,0.4980392156862745,0.5098039215686274
152,22.890491008758545,0,0.2380865757175366,0.7115314655757013,0.6760640241009893,0.7599198263084905,0.4958228926322039,0.670475787899192,0.6299605173844696,0.4980392156862745,0.5019607843137255,0.5019607843137255,0.49411764705882355,0.4980392156862745,0.49411764705882355,0.5019607843137255,0.4980392156862745
153,22.91821300983429,0,0.24208803174198865,0.7089850841305962,0.6767915595281674,0.7604760329953957,0.4947294359178956,0.667566998068506,0.6307915977617271,0.49411764705882355,0.4980392156862745,0.49411764705882355,0.5019607843137255,0.4980392156862745,0.4980392156862745,0.5019607843137255,0.49019607843137253
154,22.94827401638031,0,0.2446344206370755,0.7060749349719022,0.6782466378325053,0.7610823907909187,0.4937699651282569,0.664242668049191,0.632453767026527,0.5058823529411764,0.4980392156862745,0.4980392156862745,0.5058823529411764,0.49411764705882355,0.5019607843137255,0.49411764705882355,0.5019607843137255
155,22.95029306411743,0,0.24863586548655478,0.7097126232827652,0.6793379409732724,0.7616971737684427,0.49296340713679304,0.6683980827009058,0.6337003875924133,0.5098039215686274,0.4980392156862745,0.5019607843137255,0.5019607843137255,0.4980392156862745,0.49019607843137253,0.4980392156862745,0.4980392156862745
156,22.978143095970157,0,0.2429974510259612,0.7046198641175461,0.6837031609863224,0.7624019402428224,0.4921328671626235,0.6625805072946759,0.6386868783662433,0.49019607843137253,0.49411764705882355,0.4980392156862745,0.49411764705882355,0.4980392156862745,0.4980392156862745,0.5019607843137255,0.4980392156862745
157,23.00815200805664,0,0.24263369076235405,0.7037104411085826,0.6815205547047883,0.7631251995661799,0.4915089015877469,0.6615416525679615,0.6361936372344706,0.5019607843137255,0.4980392156862745,0.4980392156862745,0.4980392156862745,0.4980392156862745,0.49411764705882355,0.4980392156862745,0.5019607843137255
158,23.010351061820984,0,0.23699526885177863,0.6973444874958201,0.6720625643515463,0.763828689497832,0.4910157773872882,0.6542696779912461,0.6253895582889836,0.5019607843137255,0.4980392156862745,0.5058823529411764,0.4980392156862745,0.5058823529411764,0.4980392156862745,0.49411764705882355,0.4980392156862745
159,23.03827202320099,0,0.23226627740014852,0.69297926748277,0.6638777758958295,0.7645110569024879,0.49039353088995125,0.6492831872174161,0.6160398870242667,0.5019607843137255,0.4980392156862745,0.5019607843137255,0.5019607843137255,0.4980392156862745,0.4980392156862745,0.5019607843137255,0.4980392156862745
160,23.068199038505554,0,0.2268097430713586,0.6906147698944595,0.6644234274662131,0.7652146276818461,0.48935496721497873,0.6465821674810442,0.6166631973072098,0.4980392156862745,0.5019607843137255,0.5019607843137255,0.4980392156862745,0.4980392156862745,0.4980392156862745,0.49411764705882355,0.4980392156862745
161,23.07069110870361,0,0.22753728594851844,0.689341579171907,0.6698799580700122,0.7659925528199341,0.48792626527511035,0.6451277725657012,0.6228963171572109,0.5019607843137255,0.4980392156862745,0.4980392156862745,0.4980392156862745,0.5019607843137255,0.5019607843137255,0.4980392156862745,0.49411764705882355
162,23.09849202632904,0,0.2304474351072125,0.6860676622996239,0.6751546048170166,0.7668253012130221,0.4862642257921544,0.6413879023577574,0.6289216669128976,0.49411764705882355,0.5019607843137255,0.4980392156862745,0.4980392156862745,0.4980392156862745,0.5058823529411764,0.5058823529411764,0.49411764705882355
163,23.12880706787109,0,0.23299382400229934,0.6809749031344048,0.6784285216892997,0.7676979032700602,0.4846005331863665,0.6355703269515275,0.6326615371208414,0.4980392156862745,0.49411764705882355,0.49411764705882355,0.4980392156862745,0.49411764705882355,0.4980392156862745,0.4980392156862745,0.49411764705882355
164,23.130410075187683,0,0.23444887995669175,0.6793379409732724,0.6815205547047883,0.7685659523247036,0.48306959506703046,0.6337003875924133,0.6361936372344706,0.4980392156862745,0.4980392156862745,0.49411764705882355,0.4980392156862745,0.4980392156862745,0.5058823529411764,0.49411764705882355,0.5058823529411764
165,23.16042304039001,0,0.2373590291153858,0.6791560571164778,0.6815205547047883,0.7694758549602366,0.4816152061088868,0.6334926174980989,0.6361936372344706,0.5019607843137255,0.5019607843137255,0.5019607843137255,0.49411764705882355,0.5019607843137255,0.4980392156862745,0.4980392156862745,0.4980392156862745
166,23.187995076179504,0,0.23935975899010722,0.6767915595281674,0.6813386708479938,0.7704356023341329,0.4802384803082222,0.6307915977617271,0.6359858671401564,0.49411764705882355,0.4980392156862745,0.4980392156862745,0.5058823529411764,0.5058823529411764,0.5058823529411764,0.5019607843137255,0.4980392156862745
167,23.18992710113525,0,0.23408511969308457,0.6784285216892997,0.6824299739887609,0.7714194933861471,0.47891349448635673,0.6326615371208414,0.6372324877060426,0.4980392156862745,0.5019607843137255,0.49411764705882355,0.5137254901960784,0.5019607843137255,0.5019607843137255,0.4980392156862745,0.4980392156862745
168,23.2191960811615,0,0.2304474351072125,0.6855220070042495,0.6855220070042495,0.7724241750640485,0.47779573069646136,0.6407645878196719,0.6407645878196719,0.4980392156862745,0.4980392156862745,0.4980392156862745,0.5058823529411764,0.49019607843137253,0.49411764705882355,0.5019607843137255,0.5019607843137255
169,23.24838101863861,0,0.22535467221700248,0.688614040019738,0.6842488200066879,0.7733847181495782,0.47678277106448697,0.6442966879333013,0.6393101971594713,0.5019607843137255,0.4980392156862745,0.5098039215686274,0.49411764705882355,0.5058823529411764,0.5058823529411764,0.5019607843137255,0.4980392156862745
170,23.250729084014893,0,0.22299017462869197,0.6835212808545188,0.6978901427911945,0.7743506056939935,0.4760560752881073,0.6384791125270713,0.6548929925293316,0.5019607843137255,0.4980392156862745,0.5019607843137255,0.5019607843137255,0.49411764705882355,0.4980392156862745,0.49411764705882355,0.4980392156862745
171,23.27837407588959,0,0.21589668931374228,0.6731538749422953,0.7044379877107334,0.7753143826877659,0.4758485924159066,0.6266361873651546,0.6623727457106463,0.4980392156862745,0.5019607843137255,0.49411764705882355,0.49411764705882355,0.4980392156862745,0.49411764705882355,0.4980392156862745,0.49019607843137253
172,23.30847799777985,0,0.2197162577564089,0.6689705350610486,0.6975263788025965,0.7762512501608446,0.47673186168948906,0.6218574624304967,0.6544774565958452,0.5019607843137255,0.5019607843137255,0.48627450980392156,0.4980392156862745,0.5019607843137255,0.49019607843137253,0.5019607843137255,0.5019607843137255
173,23.310950994491574,0,0.21644234833410772,0.6826118578455554,0.6900691183240759,0.7770531913227775,0.4786534929442931,0.637440257800357,0.6459588571981012,0.4980392156862745,0.49411764705882355,0.5019607843137255,0.48627450980392156,0.49411764705882355,0.5019607843137255,0.49411764705882355,0.4980392156862745
174,23.338192105293274,0,0.22262640691510294,0.6993452173705416,0.6837031609863224,0.7777066790757968,0.48156293764139846,0.6565551575389891,0.6386868783662433,0.5019607843137255,0.5019607843137255,0.49411764705882355,0.4980392156862745,0.4980392156862745,0.4980392156862745,0.5058823529411764,0.4980392156862745
175,23.3683420419693,0,0.229538012098249,0.7177155316066783,0.6817024385615829,0.7782753788608611,0.4850169818479029,0.6775399881264508,0.636401407328785,0.4980392156862745,0.5019607843137255,0.4980392156862745,0.48627450980392156,0.4980392156862745,0.4980392156862745,0.4980392156862745,0.49411764705882355
176,23.37065303325653,0,0.22881047294608003,0.7335394792976738,0.6849763554338658,0.7788684180605947,0.4886785255216635,0.6956160459037958,0.6401412775367288,0.5098039215686274,0.5019607843137255,0.49411764705882355,0.5137254901960784,0.4980392156862745,0.5019607843137255,0.49411764705882355,0.4980392156862745
177,23.39809608459473,0,0.23463077126346812,0.7428155634441758,0.6822480901319664,0.779485137127922,0.492495456358919,0.706212329224114,0.6370247176117282,0.48627450980392156,0.4980392156862745,0.5019607843137255,0.5019607843137255,0.4980392156862745,0.4980392156862745,0.4980392156862745,0.5019607843137255
178,23.42827606201172,0,0.2453619486142717,0.7457257126028698,0.6784285216892997,0.7801695555112266,0.49626288286920517,0.709536659243429,0.6326615371208414,0.49411764705882355,0.5019607843137255,0.5058823529411764,0.5058823529411764,0.4980392156862745,0.5019607843137255,0.5019607843137255,0.5058823529411764
179,23.430339097976685,0,0.24136048886482878,0.7544561600789519,0.6749727135102404,0.780840187233075,0.49979434896661323,0.7195096493013738,0.6287138883082984,0.5058823529411764,0.49411764705882355,0.5019607843137255,0.5098039215686274,0.5019607843137255,0.49019607843137253,0.5019607843137255,0.4980392156862745
180,23.458057045936584,0,0.24117860873302516,0.7599126981327328,0.6766096756713729,0.7815149464430755,0.5029368950464016,0.7257427776616598,0.6305838276674127,0.5058823529411764,0.5019607843137255,0.4980392156862745,0.5019607843137255,0.49019607843137253,0.4980392156862745,0.4980392156862745,0.4980392156862745
181,23.4882470369339,0,0.2415423801716051,0.7566387812604498,0.6838850522930988,0.7822328740729748,0.5055372976849983,0.722002907453716,0.6388946569708425,0.48627450980392156,0.5019607843137255,0.4980392156862745,0.4980392156862745,0.4980392156862745,0.4980392156862745,0.4980392156862745,0.5058823529411764
182,23.549031019210812,0,0.23899599872650007,0.7497271723523128,0.688614040019738,0.7829669967749425,0.5077412912553079,0.7141076183389151,0.6442966879333013,0.5058823529411764,0.5019607843137255,0.49019607843137253,0.49411764705882355,0.4980392156862745,0.5019607843137255,0.5019607843137255,0.49411764705882355
183,23.55200302600861,0,0.24117860873302516,0.7502728276476872,0.6920698444738065,0.7837296629722954,0.5097949931951764,0.7147309328770006,0.6482443324907018,0.4980392156862745,0.49411764705882355,0.49019607843137253,0.5019607843137255,0.4980392156862745,0.5019607843137255,0.4980392156862745,0.5019607843137255
184,23.608241081237797,0,0.2573663129626369,0.7382684670243129,0.6947981097757061,0.7860219507479179,0.5155364313380006,0.7010180768662545,0.6513608924157023,0.5019607843137255,0.5019607843137255,0.49019607843137253,0.5019607843137255,0.5019607843137255,0.4980392156862745,0.49411764705882355,0.4980392156862745
185,23.61040210723877,0,0.2524554376542123,0.736813388719975,0.6984357980865691,0.7866429292128123,0.5176657003521897,0.6993559076014546,0.6555163070674171,0.4980392156862745,0.4980392156862745,0.5019607843137255,0.5058823529411764,0.4980392156862745,0.49411764705882355,0.5019607843137255,0.4980392156862745
186,23.61280703544617,0,0.25281920536780134,0.7419061441602033,0.6909785376080485,0.7871137351912534,0.5198481969429696,0.7051734787525421,0.646997707669673,0.4980392156862745,0.5019607843137255,0.4980392156862745,0.49411764705882355,0.5019607843137255,0.49411764705882355,0.5019607843137255,0.5019607843137255
187,23.638123035430908,0,0.26500546474793374,0.7388141148697056,0.6884321561629435,0.7875237607152997,0.5217429522927048,0.7016413828940553,0.6440889178389869,0.4980392156862745,0.5019607843137255,0.5019607843137255,0.4980392156862745,0.4980392156862745,0.5058823529411764,0.4980392156862745,0.49411764705882355
188,23.668318033218387,0,0.26045834597812545,0.7506365916362855,0.6942524544803316,0.7879591468881975,0.5228323496011401,0.7151464688104869,0.6507375778776168,0.49411764705882355,0.4980392156862745,0.49411764705882355,0.49411764705882355,0.5019607843137255,0.4980392156862745,0.5019607843137255,0.4980392156862745
189,23.670818090438843,0,0.27391778863082855,0.7389959950015093,0.7018915988156466,0.7885116218151962,0.5232236142022357,0.7018491487332272,0.6594639473696753,0.5058823529411764,0.49411764705882355,0.5019607843137255,0.4980392156862745,0.49411764705882355,0.5058823529411764,0.4980392156862745,0.4980392156862745
190,23.6981600522995,0,0.2746453315079885,0.7308112065457925,0.7091669754373726,0.7891331832346028,0.523067356862115,0.6924994774685104,0.667774776673105,0.4980392156862745,0.5019607843137255,0.5019607843137255,0.5058823529411764,0.4980392156862745,0.49411764705882355,0.5019607843137255,0.4980392156862745
191,23.728349089622498,0,0.27391778863082855,0.7177155316066783,0.7098945034145688,0.789878811841687,0.5224162519888537,0.6775399881264508,0.6686058485400778,0.4980392156862745,0.4980392156862745,0.4980392156862745,0.49411764705882355,0.4980392156862745,0.5058823529411764,0.5019607843137255,0.4980392156862745
192,23.730295062065125,0,0.28046562982537654,0.7124408885846647,0.7186249508906509,0.7906332485935905,0.5217412672563047,0.6715146426259063,0.6785788385980226,0.5019607843137255,0.4980392156862745,0.4980392156862745,0.5098039215686274,0.5058823529411764,0.4980392156862745,0.49411764705882355,0.49019607843137253
193,23.758328080177307,0,0.28155692924115266,0.7171698800362949,0.7224445193333174,0.791227198393803,0.5213508877248333,0.6769166778435075,0.6829420190889094,0.5058823529411764,0.4980392156862745,0.4980392156862745,0.5019607843137255,0.5019607843137255,0.49411764705882355,0.5019607843137255,0.5019607843137255
194,23.78859508037567,0,0.2819206969547417,0.7209894522039524,0.7182611869020529,0.7916913748603464,0.5210644357919434,0.6812798625895368,0.6781633026645363,0.4980392156862745,0.49019607843137253,0.4980392156862745,0.49411764705882355,0.49411764705882355,0.5019607843137255,0.4980392156862745,0.5058823529411764
195,23.790717005729675,0,0.2873772275585407,0.7195343701746234,0.7220807590697103,0.7921850139330384,0.5204411510398548,0.6796176890695945,0.6825264874105655,0.5019607843137255,0.4980392156862745,0.49411764705882355,0.4980392156862745,0.4980392156862745,0.4980392156862745,0.5019607843137255,0.49411764705882355
196,23.81905102729797,0,0.29647144274821186,0.7160785843455095,0.724445249208039,0.7928136686748671,0.5194294398666677,0.6756700657879061,0.6852274986366524,0.4980392156862745,0.4980392156862745,0.4980392156862745,0.49411764705882355,0.4980392156862745,0.49019607843137253,0.4980392156862745,0.4980392156862745
197,23.84854304790497,0,0.30138231060665466,0.7111677053120942,0.7249909082284043,0.7934753135359145,0.5182634074431632,0.6700602562208481,0.6858508174298805,0.5019607843137255,0.5019607843137255,0.5058823529411764,0.49411764705882355,0.5019607843137255,0.5019607843137255,0.49411764705882355,0.49411764705882355
198,23.85122311115265,0,0.3022917410656,0.7060749349719022,0.725536559798788,0.7940114061645782,0.5172743931996698,0.664242668049191,0.6864741277128236,0.4980392156862745,0.5019607843137255,0.49411764705882355,0.4980392156862745,0.49411764705882355,0.5019607843137255,0.49411764705882355,0.4980392156862745
199,23.87836301326752,0,0.304474351072125,0.7069843542558748,0.7249909082284043,0.7943506559046741,0.516547504239824,0.6652815185207629,0.6858508174298805,0.5019607843137255,0.4980392156862745,0.49411764705882355,0.5058823529411764,0.5058823529411764,0.49019607843137253,0.5019607843137255,0.5058823529411764
200,23.908576011657715,0,0.3072026089240427,0.7108039226985413,0.728810476671071,0.7945683447359805,0.5161080927021925,0.6696446990116497,0.6902139979207673,0.49411764705882355,0.5019607843137255,0.5137254901960784,0.4980392156862745,0.5019607843137255,0.4980392156862745,0.4980392156862745,0.5019607843137255
201,23.911118030548096,0,0.30192797335201094,0.7126227724414592,0.7295380195482308,0.7946590643724755,0.5157416653674299,0.6717224127202208,0.6910450868083097,0.5019607843137255,0.4980392156862745,0.4980392156862745,0.5058823529411764,0.49411764705882355,0.5058823529411764,0.5019607843137255,0.5058823529411764
202,23.93869400024414,0,0.30065478262945844,0.7148053824479843,0.7251727920851989,0.7945778507241572,0.5154552730065339,0.6742156581071358,0.6860585875241948,0.4980392156862745,0.49411764705882355,0.49411764705882355,0.49411764705882355,0.5019607843137255,0.5019607843137255,0.49411764705882355,0.49411764705882355
203,23.968488097190857,0,0.30210985720880545,0.7178974229134547,0.7302655475254272,0.79434734965901,0.5152222060905046,0.6777477667310499,0.6918761586752824,0.49411764705882355,0.4980392156862745,0.49411764705882355,0.49411764705882355,0.5058823529411764,0.5019607843137255,0.5019607843137255,0.5019607843137255
204,23.97082602977753,0,0.29774463347076435,0.721535100049345,0.7366315048631805,0.7939370688264182,0.5152233251929623,0.6819031686173376,0.6991481375071402,0.49411764705882355,0.4980392156862745,0.49019607843137253,0.49411764705882355,0.5019607843137255,0.5058823529411764,0.5019607843137255,0.4980392156862745
205,23.998118996620175,0,0.2944707165984813,0.7304474388322034,0.736813388719975,0.7934428340337867,0.5154309421021493,0.6920839372798815,0.6993559076014546,0.5019607843137255,0.49411764705882355,0.49019607843137253,0.4980392156862745,0.49411764705882355,0.49411764705882355,0.4980392156862745,0.4980392156862745
206,24.028154015541077,0,0.2846489622566412,0.7277191809802857,0.7315387494229524,0.7929217237616005,0.5156124069059941,0.6889673858651659,0.6933305663560527,0.49411764705882355,0.4980392156862745,0.49411764705882355,0.49019607843137253,0.49411764705882355,0.4980392156862745,0.4980392156862745,0.4980392156862745
207,24.030132055282593,0,0.2850127262452393,0.7224445193333174,0.730993090402587,0.792380793036,0.5157172536153393,0.6829420190889094,0.6927072475628248,0.4980392156862745,0.5137254901960784,0.5294117647058824,0.5019607843137255,0.5019607843137255,0.4980392156862745,0.49411764705882355,0.4980392156862745
208,24.058070063591003,0,0.2884685344242987,0.7218988826628976,0.7331756966841212,0.7918285606521194,0.5159495503505898,0.682318725826536,0.6952004886945973,0.5058823529411764,0.49411764705882355,0.4823529411764706,0.5019607843137255,0.4980392156862745,0.4980392156862745,0.5058823529411764,0.5098039215686274
209,24.0882830619812,0,0.28283011996370516,0.7308112065457925,0.7369952651267876,0.7911864171088044,0.5166263903252359,0.6924994774685104,0.6995636691854842,0.4980392156862745,0.49019607843137253,0.48627450980392156,0.49019607843137253,0.5019607843137255,0.5019607843137255,0.5058823529411764,0.4980392156862745
210,24.09033203125,0,0.27955621054140395,0.7304474388322034,0.7380865757175366,0.7906963949071735,0.51712062937301,0.6920839372798815,0.7008102982616553,0.49411764705882355,0.49411764705882355,0.5019607843137255,0.5019607843137255,0.5490196078431373,0.49019607843137253,0.49411764705882355,0.49411764705882355
211,24.11832904815674,0,0.27646417007593355,0.7266278703895368,0.7371771564335641,0.7903469881421096,0.5175595898655444,0.6877207567889947,0.6997714477900834,0.4980392156862745,0.48627450980392156,0.47843137254901963,0.4980392156862745,0.4823529411764706,0.4980392156862745,0.5019607843137255,0.5058823529411764
212,24.148353099822998,0,0.27737358935990614,0.7333575879908975,0.7444525293302992,0.7899962750483215,0.5182377404240573,0.6954082672991965,0.7080822728383708,0.49411764705882355,0.5137254901960784,0.5490196078431373,0.5019607843137255,0.49019607843137253,0.5019607843137255,0.49411764705882355,0.4980392156862745
213,24.150857090950012,0,0.2831938876772942,0.7266278703895368,0.7493634046387239,0.7897811137716154,0.5187815263502248,0.6877207567889947,0.7136920781502862,0.5058823529411764,0.49411764705882355,0.4823529411764706,0.49411764705882355,0.5019607843137255,0.5019607843137255,0.4980392156862745,0.5019607843137255
214,24.17862701416016,0,0.29592579490281923,0.7235358299240664,0.7533648606631758,0.789698717193703,0.5193778845610498,0.6841886481650806,0.71826303299063,0.5019607843137255,0.4980392156862745,0.47843137254901963,0.5019607843137255,0.48627450980392156,0.4980392156862745,0.4980392156862745,0.4980392156862745
215,24.237563014030453,0,0.3064750809468465,0.7297198996800345,0.7566387812604498,0.7896772882964521,0.520236010623559,0.6912528526474816,0.722002907453716,0.49411764705882355,0.48627450980392156,0.45098039215686275,0.5019607843137255,0.49019607843137253,0.5019607843137255,0.49411764705882355,0.49019607843137253
216,24.269015073776245,0,0.31356856998678706,0.7379046844107603,0.7524554302042306,0.7898117507970734,0.5208344495990295,0.700602519657056,0.7172241697536307,0.4980392156862745,0.49019607843137253,0.4666666666666667,0.49411764705882355,0.4470588235294118,0.4980392156862745,0.5019607843137255,0.5058823529411764
217,24.299116015434265,0,0.34994543447046256,0.7329938165523175,0.7659148803069153,0.7922667126675932,0.5217146470852956,0.6949927228554253,0.7325992077946041,0.5215686274509804,0.5019607843137255,0.45098039215686275,0.49411764705882355,0.5254901960784314,0.4980392156862745,0.4980392156862745,0.5058823529411764
218,24.328574061393734,0,0.35849399808975013,0.7169880036294822,0.7599126981327328,0.7931003801714449,0.5223126009745298,0.676708916259478,0.7257427776616598,0.48627450980392156,0.49019607843137253,0.5254901960784314,0.5176470588235295,0.4980392156862745,0.49411764705882355,0.4980392156862745,0.49411764705882355
219,24.331436038017273,0,0.3692251717155628,0.7218988826628976,0.7615496602938652,0.7941135891547654,0.5229619825151092,0.682318725826536,0.727612717020774,0.5215686274509804,0.48627450980392156,0.43529411764705883,0.49019607843137253,0.5019607843137255,0.5137254901960784,0.5058823529411764,0.5098039215686274
220,24.358835101127625,0,0.3641324125503437,0.7369952651267876,0.7666424157340935,0.795150422688828,0.5240783021096657,0.6995636691854842,0.7334302881718615,0.49411764705882355,0.48627450980392156,0.4627450980392157,0.47058823529411764,0.48627450980392156,0.4980392156862745,0.4980392156862745,0.4980392156862745
221,24.388254046440125,0,0.36831574870659933,0.7517279022270342,0.7715532947675089,0.7962313692844077,0.5253028299760828,0.7163930978866581,0.7390400977389195,0.49019607843137253,0.5529411764705883,0.5607843137254902,0.5333333333333333,0.5450980392156862,0.5137254901960784,0.49411764705882355,0.5058823529411764
222,24.390611052513126,0,0.3770461961826815,0.7393597776150619,0.7615496602938652,0.7975745986039049,0.5261841550750914,0.7022647059424256,0.727612717020774,0.49019607843137253,0.48627450980392156,0.4666666666666667,0.4666666666666667,0.4980392156862745,0.49019607843137253,0.4745098039215686,0.4823529411764706
223,24.41882705688477,0,0.38232084292968593,0.744088765341701,0.7720989463378926,0.7990317338309695,0.5270418981747823,0.7076667369048844,0.7396634080218627,0.49411764705882355,0.4980392156862745,0.5411764705882353,0.5137254901960784,0.5098039215686274,0.49411764705882355,0.5098039215686274,0.5019607843137255
224,24.448228001594547,0,0.3715896730288642,0.736813388719975,0.7719170550311161,0.8003939368305386,0.5279474648201846,0.6993559076014546,0.7394556294172635,0.49019607843137253,0.4588235294117647,0.49411764705882355,0.4588235294117647,0.47843137254901963,0.4980392156862745,0.4980392156862745,0.4980392156862745
225,24.45078909397125,0,0.3748635861761564,0.7357220818542171,0.7620953081392579,0.8017236816036917,0.5288577504185359,0.6981092827804259,0.7282360230485748,0.49411764705882355,0.5019607843137255,0.5215686274509804,0.4588235294117647,0.4823529411764706,0.48627450980392156,0.5019607843137255,0.4980392156862745
226,24.479011058807373,0,0.3608584956780606,0.7591851589805638,0.7755547470669701,0.8028986115300063,0.5300280337293226,0.7249116930292598,0.7436110483241207,0.4980392156862745,0.49019607843137253,0.4823529411764706,0.5294117647058824,0.5098039215686274,0.4980392156862745,0.4980392156862745,0.4980392156862745
227,24.508090019226074,0,0.3583121142329556,0.7526373215110068,0.7753728632101756,0.8040009061751309,0.5310438255840949,0.7174319483582301,0.7434032782298063,0.49019607843137253,0.49411764705882355,0.5215686274509804,0.5058823529411764,0.4980392156862745,0.5019607843137255,0.5058823529411764,0.49019607843137253
228,24.53794503211975,0,0.3664969026886724,0.7384503471561166,0.7782830123688698,0.8051894525572044,0.5318214698827828,0.7012258427054264,0.7467276082491213,0.5058823529411764,0.5058823529411764,0.4980392156862745,0.5137254901960784,0.5019607843137255,0.5098039215686274,0.4980392156862745,0.5058823529411764
229,24.53967106342316,0,0.3637686448367547,0.728082941243893,0.7757366234737828,0.8061877515214687,0.5330904427118262,0.6893829175435098,0.7438188099081503,0.5098039215686274,0.5137254901960784,0.5058823529411764,0.5098039215686274,0.5137254901960784,0.4980392156862745,0.5019607843137255,0.5058823529411764
230,24.56830108165741,0,0.3641324125503437,0.729901783536829,0.766096756713728,0.8069292951918254,0.5349901084959195,0.691460622741796,0.7328069693786335,0.49411764705882355,0.5176470588235295,0.5254901960784314,0.5058823529411764,0.4980392156862745,0.4980392156862745,0.4980392156862745,0.5019607843137255
231,24.598257064819336,0,0.36467806412072723,0.7344488985816465,0.7519097935338107,0.8075316957048934,0.537166328751623,0.6966548963753677,0.7166008764912574,0.4980392156862745,0.4980392156862745,0.49411764705882355,0.49411764705882355,0.4980392156862745,0.49019607843137253,0.5058823529411764,0.5019607843137255
232,24.600102066993713,0,0.3637686448367547,0.7546380513857283,0.7544561600789519,0.8080405894631782,0.5393521103123547,0.719717427905973,0.7195096493013738,0.5058823529411764,0.49411764705882355,0.48627450980392156,0.5098039215686274,0.4980392156862745,0.4980392156862745,0.5019607843137255,0.49411764705882355
233,24.628597021102905,0,0.36249545038921127,0.7550018190993174,0.7500909437908928,0.8084808052227279,0.541429564457238,0.7201329680946018,0.7145231627826861,0.4980392156862745,0.49019607843137253,0.48627450980392156,0.5176470588235295,0.4980392156862745,0.5098039215686274,0.4980392156862745,0.4980392156862745
234,24.658167004585266,0,0.3714077817220879,0.7442706454735047,0.7493634046387239,0.8090588493005568,0.5431456123354196,0.7078745027440563,0.7136920781502862,0.4980392156862745,0.49019607843137253,0.47058823529411764,0.5019607843137255,0.4823529411764706,0.48627450980392156,0.49019607843137253,0.49411764705882355
235,24.66022610664368,0,0.3783193906302249,0.7337213557044865,0.7397235378786691,0.8096389698878891,0.5450107944453031,0.6958238074878254,0.7026802376207696,0.49411764705882355,0.4980392156862745,0.49411764705882355,0.4980392156862745,0.5098039215686274,0.5058823529411764,0.5019607843137255,0.5019607843137255
236,24.688614010810852,0,0.3808657683503389,0.7308112065457925,0.7282648176507055,0.8100935467531222,0.5473000951109436,0.6924994774685104,0.6895906791275394,0.4980392156862745,0.5058823529411764,0.5098039215686274,0.5019607843137255,0.48627450980392156,0.49019607843137253,0.49411764705882355,0.4980392156862745
237,24.718495011329647,0,0.38177519135930243,0.7264459790827604,0.7226264106400939,0.8103496637756663,0.5498963106893944,0.6875129781843956,0.6831497976935087,0.5058823529411764,0.49411764705882355,0.48627450980392156,0.5058823529411764,0.4980392156862745,0.5098039215686274,0.5019607843137255,0.4980392156862745
238,24.720105051994324,0,0.38032012050494635,0.730993090402587,0.724445249208039,0.810444808760283,0.5527506517176138,0.6927072475628248,0.6852274986366524,0.5019607843137255,0.4980392156862745,0.5176470588235295,0.4588235294117647,0.5019607843137255,0.5058823529411764,0.4980392156862745,0.4980392156862745
239,24.748622059822086,0,0.3783193906302249,0.7377228080039476,0.727355398366733,0.8103610675573645,0.5558735730805394,0.7003947580730264,0.6885518286559674,0.4980392156862745,0.4980392156862745,0.4823529411764706,0.5215686274509804,0.49411764705882355,0.4980392156862745,0.5019607843137255,0.5058823529411764
240,24.778040051460266,0,0.3697708270109373,0.7519097935338107,0.7355401979974225,0.8102219669515004,0.5589874352452427,0.7166008764912574,0.6979015126861114,0.49019607843137253,0.49019607843137253,0.5372549019607843,0.5294117647058824,0.5058823529411764,0.5098039215686274,0.4980392156862745,0.4980392156862745
241,24.809643030166626,0,0.35885776580333917,0.7593670391123676,0.7382684670243129,0.8099528717445609,0.5623088462368543,0.7251194588684318,0.7010180768662545,0.5058823529411764,0.4980392156862745,0.4470588235294118,0.47058823529411764,0.5098039215686274,0.4980392156862745,0.5058823529411764,0.4980392156862745
242,24.81238305568695,0,0.3641324125503437,0.7346307749884591,0.7118952332892903,0.8098402806760027,0.565067723144775,0.6968626579593972,0.6708913280878208,0.5058823529411764,0.5176470588235295,0.5058823529411764,0.49411764705882355,0.49019607843137253,0.5058823529411764,0.5019607843137255,0.5019607843137255
243,24.839015007019047,0,0.3714077817220879,0.7384503471561166,0.7108039226985413,0.8097249450405806,0.5676091665299349,0.7012258427054264,0.6696446990116497,0.49411764705882355,0.4980392156862745,0.5058823529411764,0.5254901960784314,0.5568627450980392,0.5058823529411764,0.49411764705882355,0.49411764705882355
244,24.839854001998898,0,0.35849399808975013,0.7508184829430617,0.7037104411085826,0.8089983581958469,0.5709079061227075,0.7153542474150861,0.6615416525679615,0.5058823529411764,0.5058823529411764,0.5176470588235295,0.5490196078431373,0.5019607843137255,0.49411764705882355,0.5019607843137255,0.5098039215686274
245,24.869007110595703,0,0.3555838489310561,0.7670061759977007,0.702437257836012,0.8077557161881278,0.5747533123730691,0.7338458198502055,0.6600872661629033,0.5019607843137255,0.4980392156862745,0.5098039215686274,0.47058823529411764,0.48627450980392156,0.49019607843137253,0.49411764705882355,0.4980392156862745
246,24.89838409423828,0,0.3610403795348551,0.7724627140514816,0.7011640559384866,0.8063729225543655,0.5783611965732828,0.7400789482104915,0.6586328584821329,0.4980392156862745,0.49411764705882355,0.4980392156862745,0.48627450980392156,0.5019607843137255,0.4980392156862745,0.4980392156862745,0.49411764705882355
247,24.900556087493896,0,0.3715896730288642,0.7571844328308333,0.6880683884493545,0.8050712617212153,0.5815546128807588,0.7226262177366592,0.6436733776503581,0.49019607843137253,0.47058823529411764,0.44313725490196076,0.4549019607843137,0.5333333333333333,0.4980392156862745,0.48627450980392156,0.4823529411764706
248,24.928678035736084,0,0.3779556191916449,0.7537286321017558,0.6797017086868614,0.8036750048168213,0.584543892985551,0.7186785774344011,0.6341159277810421,0.4823529411764706,0.5019607843137255,0.5176470588235295,0.47843137254901963,0.49411764705882355,0.4745098039215686,0.4823529411764706,0.4980392156862745
249,24.95825707912445,0,0.36958894315414276,0.7710076357471437,0.6844307038634824,0.8018340004261951,0.5878436708330753,0.7384167789456916,0.6395179672537856,0.5019607843137255,0.5098039215686274,0.5490196078431373,0.5019607843137255,0.4549019607843137,0.5019607843137255,0.5058823529411764,0.49019607843137253
250,24.960562109947205,0,0.3617679149620332,0.7775554769416915,0.6867952014517928,0.7998352706713118,0.5910128583595848,0.7458965278718638,0.6422189869901573,0.6039215686274509,0.5294117647058824,0.5568627450980392,0.49411764705882355,0.5490196078431373,0.5058823529411764,0.5098039215686274,0.5529411764705883
251,24.988798022270203,0,0.3681338648498048,0.773008365621865,0.6887959313265144,0.7981183249580784,0.5934271836199485,0.7407022584934346,0.6445044665379004,0.5058823529411764,0.49019607843137253,0.4588235294117647,0.5294117647058824,0.4235294117647059,0.49019607843137253,0.49019607843137253,0.5254901960784314
252,25.018537998199463,0,0.3679519809930103,0.7640960268390067,0.6869770853085874,0.7967390375616742,0.5951141986613664,0.7305214898308905,0.6424267570844718,0.5294117647058824,0.5019607843137255,0.5333333333333333,0.48627450980392156,0.4745098039215686,0.5019607843137255,0.5137254901960784,0.5294117647058824
253,25.020008087158203,0,0.3541287780767,0.7662786480205045,0.692251728330601,0.7954118033225515,0.5966713978176907,0.7330147479832329,0.6484521025850162,0.4117647058823529,0.4823529411764706,0.4627450980392157,0.49411764705882355,0.5764705882352941,0.49411764705882355,0.5098039215686274,0.5725490196078431
254,25.04855000972748,0,0.34012368012862243,0.7833757752590795,0.68788650459256,0.793934200860424,0.5984128063447238,0.7525451879104937,0.6434656075560438,0.41568627450980394,0.4588235294117647,0.396078431372549,0.4980392156862745,0.5215686274509804,0.47843137254901963,0.4627450980392157,0.2627450980392157
255,25.077978014945984,0,0.3233903243286272,0.7884685306993079,0.6953437576210986,0.792638752535214,0.5996609247207436,0.7583627590615812,0.6519841984435031,0.5411764705882353,0.48627450980392156,0.5215686274509804,0.5137254901960784,0.5137254901960784,0.5058823529411764,0.5176470588235295,0.5372549019607843
256,25.079650044441227,0,0.3057475529696503,0.7926518817555273,0.7089850841305962,0.7918328157945441,0.6001021149079087,0.7631414967616665,0.667566998068506,0.5137254901960784,0.5372549019607843,0.5333333333333333,0.5843137254901961,0.5647058823529412,0.5098039215686274,0.4980392156862745,0.47058823529411764
257,25.108334064483643,0,0.29847216144796057,0.7950163718938558,0.7057111672583133,0.7914171139105032,0.6000241351678332,0.7658425079877534,0.6638271278605621,0.5529411764705883,0.5098039215686274,0.5137254901960784,0.5019607843137255,0.49411764705882355,0.5137254901960784,0.48627450980392156,0.49019607843137253
258,25.13798904418945,0,0.2982902850411479,0.7904692605740293,0.6989814496569525,0.791274796416966,0.5995509718404887,0.7606482386093243,0.6561396173503603,0.5019607843137255,0.48627450980392156,0.5176470588235295,0.4745098039215686,0.5372549019607843,0.5490196078431373,0.5137254901960784,0.4745098039215686
259,25.139639019966125,0,0.2893779537082713,0.7821025845365271,0.6915241891784321,0.7910376998810603,0.5988859228655016,0.7510907929951506,0.6476210179526163,0.5254901960784314,0.49019607843137253,0.48627450980392156,0.5372549019607843,0.4745098039215686,0.4745098039215686,0.49019607843137253,0.5058823529411764
260,25.168567061424252,0,0.28155692924115266,0.7777373533485041,0.6906147698944595,0.7906643238987182,0.5982062319454309,0.7461042894558934,0.6465821674810442,0.4117647058823529,0.4823529411764706,0.49411764705882355,0.47058823529411764,0.47843137254901963,0.5058823529411764,0.48627450980392156,0.4549019607843137
261,25.198294043540955,0,0.27409967248762307,0.7764641700759336,0.6906147698944595,0.7902493496440319,0.5975831471850361,0.7446499030508351,0.6465821674810442,0.4588235294117647,0.5058823529411764,0.5450980392156862,0.4627450980392157,0.41568627450980394,0.4980392156862745,0.4980392156862745,0.4980392156862745
262,25.200311064720157,0,0.26500546474793374,0.7630047311482213,0.6826118578455554,0.7899407667153909,0.5965975625863369,0.7292748777752891,0.637440257800357,0.43529411764705883,0.5137254901960784,0.5098039215686274,0.47058823529411764,0.4980392156862745,0.49019607843137253,0.49019607843137253,0.49411764705882355
263,25.22816801071167,0,0.26664241200910255,0.7511822506566507,0.6678792281952908,0.7895025891690628,0.5957419470578584,0.715769787603715,0.6206108376094679,0.5607843137254902,0.5294117647058824,0.5058823529411764,0.49411764705882355,0.48627450980392156,0.5450980392156862,0.5176470588235295,0.5450980392156862
264,25.25814700126648,0,0.27901054779604767,0.7448162933188973,0.6533284824018206,0.7887413058929978,0.595218909206154,0.7084978087718571,0.6039891875128931,0.4823529411764706,0.47843137254901963,0.4196078431372549,0.5058823529411764,0.5372549019607843,0.4823529411764706,0.48627450980392156,0.48627450980392156
265,25.260353088378906,0,0.2726446016332669,0.763186607555034,0.6498726816727429,0.7878145316177508,0.5950927016818367,0.7294826393593187,0.6000415472106351,0.8588235294117647,0.5098039215686274,0.5607843137254902,0.4980392156862745,0.4588235294117647,0.47058823529411764,0.49411764705882355,0.5098039215686274
266,25.288395047187805,0,0.2699163326063765,0.7831938914022851,0.6338668612999258,0.7867690814202781,0.5952716091450841,0.7523374178161794,0.5817577321044028,0.39215686274509803,0.5058823529411764,0.49019607843137253,0.5294117647058824,0.5372549019607843,0.4980392156862745,0.5019607843137255,0.5215686274509804
267,25.31906402111053,0,0.27228081901971424,0.7777373533485041,0.6262277206896016,0.785995100799218,0.5950401804588882,0.7461042894558934,0.5730313668674868,0.30980392156862746,0.48627450980392156,0.4627450980392157,0.47058823529411764,0.47058823529411764,0.4980392156862745,0.5176470588235295,0.5215686274509804
268,25.32086205482483,0,0.2699163326063765,0.77118952705392,0.6347762843088892,0.7854040189649997,0.5946158236151554,0.7386245575502907,0.5827965868311172,0.40784313725490196,0.5019607843137255,0.5137254901960784,0.4549019607843137,0.39215686274509803,0.5215686274509804,0.5137254901960784,0.5490196078431373
269,25.34846305847168,0,0.25936704283735834,0.7699163251563947,0.6214987255129806,0.7847435995849706,0.5945185851004657,0.7371701498695203,0.5676293273947431,0.5058823529411764,0.47058823529411764,0.4823529411764706,0.41568627450980394,0.3803921568627451,0.4745098039215686,0.47843137254901963,0.5333333333333333
270,25.378911018371586,0,0.2611858851302944,0.7771917166780843,0.6056747927219488,0.7836534108200444,0.5952461080765327,0.7454809961935199,0.5495532866379679,0.47058823529411764,0.5215686274509804,0.4980392156862745,0.49019607843137253,0.5882352941176471,0.5176470588235295,0.5058823529411764,0.5215686274509804
271,25.381424069404602,0,0.26318661128002496,0.774463443926203,0.5922153500692456,0.782486948627155,0.5957925960181399,0.7423644277582345,0.5341782571072793,0.49019607843137253,0.49411764705882355,0.5058823529411764,0.5098039215686274,0.5411764705882353,0.5019607843137255,0.5098039215686274,0.4980392156862745
272,25.408498048782352,0,0.25481992406755005,0.7577300918511988,0.6040378305608164,0.7814704376533128,0.5956871025271462,0.7232495365298872,0.5476833472788535,0.5882352941176471,0.4980392156862745,0.5176470588235295,0.5333333333333333,0.48627450980392156,0.4980392156862745,0.5058823529411764,0.47843137254901963
273,25.4389671087265,0,0.24117860873302516,0.7553655793629246,0.6253182976806381,0.7806492377167655,0.5952240877144848,0.7205484997729457,0.5719925121407725,0.24313725490196078,0.4823529411764706,0.49411764705882355,0.49411764705882355,0.35294117647058826,0.4117647058823529,0.49411764705882355,0.4980392156862745
274,25.44093108177185,0,0.2233539460672719,0.7846489622566412,0.6265914884031907,0.7798734827013143,0.5950320233508601,0.7539995785706944,0.5734469070561156,0.5686274509803921,0.5098039215686274,0.49411764705882355,0.5529411764705883,0.6627450980392157,0.5254901960784314,0.5058823529411764,0.4823529411764706
275,25.468335032463074,0,0.22008002546999794,0.763186607555034,0.6227719199605241,0.779199276659829,0.5945390353149589,0.7294826393593187,0.5690837265652287,0.6274509803921569,0.5137254901960784,0.5254901960784314,0.5333333333333333,0.47058823529411764,0.5176470588235295,0.49411764705882355,0.5058823529411764
276,25.498176097869873,0,0.2319025134115504,0.7248090318215916,0.6131320532004694,0.7787671456708863,0.5936083037572568,0.685643055845851,0.5580718860357119,0.4980392156862745,0.5137254901960784,0.49019607843137253,0.5254901960784314,0.5450980392156862,0.4627450980392157,0.42745098039215684,0.43137254901960786
277,25.500461101531982,0,0.23481266257024444,0.7382684670243129,0.611858858752926,0.7779352653268529,0.5936599058694414,0.7010180768662545,0.5566174868652264,0.5215686274509804,0.4980392156862745,0.47843137254901963,0.4980392156862745,0.5254901960784314,0.5254901960784314,0.5294117647058824,0.5098039215686274
278,25.52812099456787,0,0.2364496098314132,0.7400873055922581,0.6038559467040219,0.7768462594915208,0.5940763055968399,0.7030957778093984,0.5474755771845391,0.5137254901960784,0.4980392156862745,0.4745098039215686,0.49411764705882355,0.5803921568627451,0.49019607843137253,0.4823529411764706,0.4627450980392157
279,25.558256030082703,0,0.23772281172893847,0.7630047311482213,0.6044016057243873,0.7757323057561526,0.5946490350017803,0.7292748777752891,0.5480988959777671,0.5333333333333333,0.49411764705882355,0.4823529411764706,0.4745098039215686,0.47843137254901963,0.5176470588235295,0.4980392156862745,0.4549019607843137
280,25.56039309501648,0,0.2479083300593767,0.7593670391123676,0.6054929088651543,0.7750565763736793,0.5946748041443045,0.7251194588684318,0.5493455165436534,0.4823529411764706,0.48627450980392156,0.5294117647058824,0.4470588235294118,0.4588235294117647,0.5490196078431373,0.5294117647058824,0.5058823529411764
281,25.588261008262638,0,0.2579119645330204,0.7251727920851989,0.6144052401980309,0.7746410063990535,0.5941813225118822,0.6860585875241948,0.5595262766959127,0.4627450980392157,0.4588235294117647,0.49019607843137253,0.4588235294117647,0.4392156862745098,0.4627450980392157,0.4980392156862745,0.615686274509804
282,25.618486046791077,0,0.24263369076235405,0.7391778863082856,0.6164059663477615,0.7741417207523639,0.5941786417721545,0.7020569273378263,0.5618117519885133,0.43137254901960786,0.4823529411764706,0.4980392156862745,0.48627450980392156,0.5294117647058824,0.5647058823529412,0.5137254901960784,0.4823529411764706
283,25.62066102027893,0,0.258821383816993,0.7433612224645412,0.5971262291026612,0.7735509367781152,0.5943894628035875,0.706835648017342,0.5397880666743373,0.5098039215686274,0.5137254901960784,0.5176470588235295,0.5686274509803921,0.5372549019607843,0.45098039215686275,0.4745098039215686,0.5019607843137255
284,25.648245096206665,0,0.2659148840319064,0.722990178353683,0.5889414331969626,0.7729459193524559,0.5941521662759879,0.6835653378821375,0.5304383868993358,0.4549019607843137,0.5254901960784314,0.5137254901960784,0.5411764705882353,0.5490196078431373,0.5019607843137255,0.49019607843137253,0.5019607843137255
285,25.678216099739075,0,0.2622771919960524,0.7217169913561213,0.5907602792148896,0.7720284766045462,0.5941742462100298,0.6821109472219367,0.5325160963527643,0.5176470588235295,0.5490196078431373,0.4823529411764706,0.5294117647058824,0.5019607843137255,0.5019607843137255,0.5019607843137255,0.5058823529411764
286,25.680297017097477,0,0.2530010854996049,0.7237177212308428,0.5914878146420677,0.7707622738732214,0.5945148661059865,0.6843964267696797,0.5333471767300217,0.5333333333333333,0.48627450980392156,0.5803921568627451,0.47843137254901963,0.4745098039215686,0.4980392156862745,0.5058823529411764,0.5372549019607843
287,25.708508014678955,0,0.24863586548655478,0.7286286002642584,0.5829392510227801,0.7691686932491656,0.5950681367446187,0.6900062363367377,0.5235819567663914,0.5254901960784314,0.4470588235294118,0.4666666666666667,0.49019607843137253,0.5058823529411764,0.5137254901960784,0.5294117647058824,0.596078431372549
288,25.738638997077945,0,0.2353583104156371,0.7664605393272809,0.5893052009105516,0.7674480115208834,0.5961299820058538,0.733222526587832,0.5308539270879644,0.49411764705882355,0.4980392156862745,0.40784313725490196,0.4980392156862745,0.5019607843137255,0.5411764705882353,0.5176470588235295,0.4666666666666667
289,25.741177082061768,0,0.22026191677677426,0.7628228472914268,0.576755184991803,0.7659714217826529,0.5968331272709696,0.7290671076809747,0.5165177565391328,0.5294117647058824,0.47058823529411764,0.4588235294117647,0.49019607843137253,0.5176470588235295,0.4980392156862745,0.49411764705882355,0.4549019607843137
290,25.768290042877197,0,0.2220807553447194,0.7662786480205045,0.5583848670306752,0.7645809688925261,0.5973978272221546,0.7330147479832329,0.4955329216965288,0.49411764705882355,0.5137254901960784,0.5098039215686274,0.5254901960784314,0.5372549019607843,0.4549019607843137,0.47058823529411764,0.5333333333333333
291,25.798251032829285,0,0.2000727527977196,0.7793743192346276,0.5489268826374187,0.7629072937226097,0.5981581190500344,0.74797423307015,0.4847288495592694,0.4666666666666667,0.5058823529411764,0.5333333333333333,0.5098039215686274,0.4627450980392157,0.4745098039215686,0.4980392156862745,0.4588235294117647
292,25.8004230260849,0,0.18715896544039096,0.7879228828539152,0.5401964351613366,0.7610793696397972,0.5983351074440484,0.7577394530337804,0.4747558595013246,0.5176470588235295,0.5137254901960784,0.4470588235294118,0.49019607843137253,0.5450980392156862,0.42745098039215684,0.49019607843137253,0.5058823529411764
293,25.82863199710846,0,0.22662786293955497,0.7600945819895273,0.539105129785575,0.7603259328463636,0.5967506838864907,0.7259505477559741,0.4735092363823529,0.5058823529411764,0.5450980392156862,0.5098039215686274,0.49411764705882355,0.5137254901960784,0.4588235294117647,0.5098039215686274,0.5882352941176471
294,25.888056993484497,0,0.22426337652621722,0.7160785843455095,0.573845035833109,0.759398503279183,0.5951180793512577,0.6756700657879061,0.5131934265198178,0.5215686274509804,0.49411764705882355,0.49019607843137253,0.5137254901960784,0.5098039215686274,0.49019607843137253,0.4549019607843137,0.40784313725490196
295,25.89002501964569,0,0.20443796908577883,0.6984357980865691,0.5840305578885381,0.7581636609475284,0.5939944111257338,0.6555163070674171,0.5248285815874201,0.6196078431372549,0.5098039215686274,0.5450980392156862,0.5176470588235295,0.5176470588235295,0.5725490196078431,0.5254901960784314,0.45098039215686275
296,25.91826105117798,0,0.22753728594851844,0.7279010573870984,0.5587486384692553,0.7549754954858047,0.5927508457521085,0.6891751474491954,0.49594846614029997,0.5098039215686274,0.47843137254901963,0.4,0.5294117647058824,0.4980392156862745,0.5137254901960784,0.5176470588235295,0.5098039215686274
297,25.921083092689514,0,0.20589305111510767,0.745543836196057,0.5398326667027494,0.7530910418358796,0.5924967371567889,0.7093288976593994,0.47434031846166735,0.5098039215686274,0.4627450980392157,0.5490196078431373,0.5372549019607843,0.5294117647058824,0.49411764705882355,0.49411764705882355,0.48627450980392156
298,25.948541045188907,0,0.191524189178432,0.730993090402587,0.5316478722870472,0.751962897200525,0.5911666306965295,0.6927072475628248,0.4649906403887227,0.42745098039215684,0.48627450980392156,0.5568627450980392,0.4470588235294118,0.4627450980392157,0.49019607843137253,0.5450980392156862,0.5411764705882353
299,25.97857105731964,0,0.20607493497190219,0.7246271405148154,0.5216442344609117,0.7510763595520459,0.5897364858378649,0.6854352772412516,0.453563255840949,0.5098039215686274,0.5294117647058824,0.4666666666666667,0.48627450980392156,0.4666666666666667,0.43529411764705883,0.49019607843137253,0.4980392156862745
300,25.981299042701718,0,0.19770825148441826,0.7006184080930942,0.5154601673124373,0.7496508783294789,0.5887509693214444,0.6580095524543321,0.4464990543371476,0.4745098039215686,0.5058823529411764,0.4745098039215686,0.4196078431372549,0.4588235294117647,0.5450980392156862,0.5450980392156862,0.5294117647058824
301,26.008579015731808,0,0.20116405966347758,0.7304474388322034,0.5220080025469997,0.7479920833926217,0.5885188768330303,0.6920839372798815,0.4539787964550919,0.5490196078431373,0.5058823529411764,0.5058823529411764,0.4549019607843137,0.5058823529411764,0.5450980392156862,0.5215686274509804,0.45098039215686275
302,26.038655042648315,0,0.2071662418376602,0.7380865757175366,0.5294652600455275,0.7466090897671654,0.5881002133698618,0.7008102982616553,0.4624973924487222,0.4549019607843137,0.5647058823529412,0.4392156862745098,0.5490196078431373,0.48627450980392156,0.5098039215686274,0.48627450980392156,0.5294117647058824
303,26.041463017463684,0,0.20789377726483824,0.7240814852194409,0.5358312114232956,0.7457350707477001,0.5869357936453363,0.6848119627031661,0.4697693644723522,0.5294117647058824,0.4470588235294118,0.47058823529411764,0.4823529411764706,0.5411764705882353,0.5647058823529412,0.5098039215686274,0.48627450980392156
304,26.068495035171512,0,0.20789377726483824,0.7211713360607469,0.5432884696668215,0.7452154880716445,0.5855331880684446,0.6814876326838512,0.4782879613170109,0.44313725490196076,0.4627450980392157,0.5764705882352941,0.5333333333333333,0.5058823529411764,0.4745098039215686,0.48627450980392156,0.5098039215686274
305,26.098213076591488,0,0.20571117098330408,0.7011640559384866,0.5301927977077002,0.7446214574237259,0.5842880610575494,0.6586328584821329,0.4633284753790652,0.5333333333333333,0.4549019607843137,0.5058823529411764,0.4627450980392157,0.4549019607843137,0.5803921568627451,0.5176470588235295,0.5176470588235295
306,26.100388050079346,0,0.1964350644868566,0.6982539067797926,0.5271007639472134,0.7436220095710069,0.5835029745147606,0.6553085284628181,0.45979637441440735,0.5098039215686274,0.5137254901960784,0.6274509803921569,0.5490196078431373,0.49019607843137253,0.47843137254901963,0.4666666666666667,0.4627450980392157
307,26.12816309928894,0,0.19243361218739546,0.7128046525732629,0.5130956712141231,0.7426198511925634,0.5829626395090997,0.6719301785593927,0.44379803630283277,0.5019607843137255,0.47843137254901963,0.5764705882352941,0.49411764705882355,0.5215686274509804,0.43137254901960786,0.5098039215686274,0.5019607843137255
308,26.16061508655548,0,0.19770825148441826,0.7138959631640118,0.5183703164711313,0.7417414068249762,0.5823414738179385,0.6731768076355639,0.4498233843564625,0.49411764705882355,0.5019607843137255,0.43137254901960786,0.4745098039215686,0.47058823529411764,0.48627450980392156,0.5098039215686274,0.5372549019607843
309,26.16242110729217,0,0.18206619510019906,0.7113495817189067,0.5149145144383069,0.7410465846184432,0.5816310224732795,0.6702680178048777,0.4458757425649046,0.5098039215686274,0.44313725490196076,0.3607843137254902,0.43529411764705883,0.5333333333333333,0.42745098039215684,0.49411764705882355,0.5450980392156862
310,26.18774402141571,0,0.18206619510019906,0.6953437576210986,0.5065478356070616,0.7404775869734093,0.5807750707885495,0.6519841984435031,0.43631829375937414,0.5372549019607843,0.5176470588235295,0.5490196078431373,0.5098039215686274,0.5294117647058824,0.5725490196078431,0.5019607843137255,0.5019607843137255
311,26.21831703186035,0,0.20207347894745017,0.6975263788025965,0.4865405610722878,0.7398875902005092,0.5801811380089066,0.6544774565958452,0.4134635259403695,0.5372549019607843,0.5333333333333333,0.5647058823529412,0.6,0.48627450980392156,0.5058823529411764,0.4666666666666667,0.48627450980392156
312,26.22119307518005,0,0.2077119008580256,0.7055292834015187,0.4750818482943062,0.7387249661460871,0.5803658324658517,0.6636193577662478,0.40037397595742413,0.4823529411764706,0.5686274509803921,0.48627450980392156,0.4666666666666667,0.5333333333333333,0.4823529411764706,0.47843137254901963,0.4823529411764706
313,26.24812209606171,0,0.2053473883697514,0.736813388719975,0.48854128722201834,0.7376090082386366,0.5809117034118073,0.6993559076014546,0.41574900123297015,0.4823529411764706,0.48627450980392156,0.49019607843137253,0.5058823529411764,0.5215686274509804,0.5372549019607843,0.5019607843137255,0.4745098039215686
314,26.278209090232853,0,0.19752637135261458,0.7184430707588473,0.5060021825466817,0.7372160415805711,0.5806763514842959,0.6783710727588507,0.43569498177437405,0.5176470588235295,0.5137254901960784,0.5254901960784314,0.5686274509803921,0.5333333333333333,0.4627450980392157,0.4549019607843137,0.42745098039215684
315,26.280393004417423,0,0.20170971123386114,0.7189887335042036,0.513641324274503,0.7373939703610609,0.5803628325904423,0.6789943958072211,0.4444213482878329,0.5019607843137255,0.5176470588235295,0.34901960784313724,0.44313725490196076,0.4549019607843137,0.5333333333333333,0.5333333333333333,0.5215686274509804
316,26.30813109874725,0,0.17861040927108518,0.7064387064104822,0.5036376864483676,0.7377083402833994,0.5800264550714831,0.6646582124929621,0.4329939637400592,0.4549019607843137,0.4745098039215686,0.5176470588235295,0.43529411764705883,0.43529411764705883,0.5254901960784314,0.49411764705882355,0.4666666666666667
317,26.3386070728302,0,0.1806111391458067,0.7008002919498886,0.4812659143252832,0.7382682319236444,0.5794756524154572,0.6582173225486466,0.4074381761846828,0.4980392156862745,0.5176470588235295,0.5411764705882353,0.5215686274509804,0.49019607843137253,0.47843137254901963,0.47058823529411764,0.49411764705882355
318,26.34079909324646,0,0.17988359254365585,0.7133503115936282,0.4821753373342467,0.7382602960830223,0.5795360158658943,0.6725534973526207,0.4084770309113971,0.5098039215686274,0.5098039215686274,0.7490196078431373,0.5294117647058824,0.45098039215686275,0.4666666666666667,0.4980392156862745,0.4823529411764706
319,26.36929500102997,0,0.190069114599085,0.728082941243893,0.48817751950842936,0.7381141830024422,0.5796582916386112,0.6893829175435098,0.4153334610443414,0.5254901960784314,0.4392156862745098,0.4196078431372549,0.45098039215686275,0.47058823529411764,0.49019607843137253,0.5215686274509804,0.4823529411764706
320,26.398491024971012,0,0.19789014279119452,0.7006184080930942,0.5380138229198169,0.7387222130689381,0.5783905740765831,0.6580095524543321,0.47226261156132415,0.5137254901960784,0.5137254901960784,0.596078431372549,0.5254901960784314,0.4588235294117647,0.5137254901960784,0.5254901960784314,0.5098039215686274
321,26.40122103691101,0,0.16169515098934079,0.6884321561629435,0.5200072756522711,0.7401270611058878,0.576209898686761,0.6440889178389869,0.4516933203114629,0.5176470588235295,0.47843137254901963,0.3568627450980392,0.45098039215686275,0.5137254901960784,0.5764705882352941,0.5294117647058824,0.5333333333333333
322,26.428514003753662,0,0.19716260363902557,0.7158966930387333,0.4939978178258175,0.7411818130447009,0.5744391935041336,0.6754622871833068,0.4219821210829713,0.43529411764705883,0.5843137254901961,0.48627450980392156,0.4666666666666667,0.5254901960784314,0.5215686274509804,0.5254901960784314,0.5450980392156862
323,26.458546042442322,0,0.1887959238765325,0.6871589691653819,0.4987268096499466,0.7415130758824656,0.5731897049722532,0.6426345271787862,0.42738415672608665,0.5607843137254902,0.5215686274509804,0.5058823529411764,0.5137254901960784,0.48627450980392156,0.4549019607843137,0.5137254901960784,0.5176470588235295
324,26.46077311038971,0,0.18242997771375172,0.6967988359254366,0.5052746452570082,0.742150215378289,0.5716633811293625,0.653646367708303,0.4348638992695453,0.45098039215686275,0.5568627450980392,0.4549019607843137,0.5294117647058824,0.5019607843137255,0.4666666666666667,0.4980392156862745,0.4823529411764706
325,26.48869609832764,0,0.14114223047166988,0.6967988359254366,0.5116405966347761,0.7427446119684562,0.569610228102867,0.653646367708303,0.4421358712931753,0.4745098039215686,0.5254901960784314,0.5568627450980392,0.5647058823529412,0.5058823529411764,0.4196078431372549,0.45098039215686275,0.4470588235294118
326,26.51903200149536,0,0.16205893360289345,0.6973444874958201,0.5170971264935771,0.7436731138315277,0.5670102382130854,0.6542696779912461,0.44836899029214794,0.5019607843137255,0.6705882352941176,0.5098039215686274,0.4196078431372549,0.49411764705882355,0.45098039215686275,0.47843137254901963,0.596078431372549
327,26.522298097610477,0,0.19625318063006209,0.701709714958852,0.5129137869103297,0.7442806630669297,0.5640275961304757,0.6592561772753609,0.44359026569790133,0.47843137254901963,0.4549019607843137,0.5803921568627451,0.6274509803921569,0.49411764705882355,0.43137254901960786,0.5058823529411764,0.5803921568627451
328,26.548871994018555,0,0.19989087266591596,0.6953437576210986,0.5440160050939996,0.7443561790795413,0.5612475115927101,0.6519841984435031,0.47911904169426844,0.3686274509803922,0.37254901960784315,0.2980392156862745,0.40784313725490196,0.5019607843137255,0.6745098039215687,0.5411764705882353,0.49019607843137253
329,26.57851505279541,0,0.19752637135261458,0.6638777758958295,0.5722080736719765,0.7445847951165944,0.557998910343128,0.6160398870242667,0.5113234871607035,0.3215686274509804,0.4980392156862745,0.2980392156862745,0.3137254901960784,0.5294117647058824,0.3568627450980392,0.4196078431372549,0.403921568627451
330,26.58094310760498,0,0.19425245448033152,0.6616951621643136,0.5527464525700817,0.7456300963840822,0.5539755625468492,0.6135466373822093,0.4890920317522133,0.6745098039215687,0.6313725490196078,0.5529411764705883,0.5294117647058824,0.4745098039215686,0.6588235294117647,0.5254901960784314,0.5058823529411764
331,26.608521103858948,0,0.19334303147136805,0.6826118578455554,0.4814477981820778,0.7458846560244988,0.5504413816685743,0.637440257800357,0.4076459462789972,0.5607843137254902,0.3803921568627451,0.7372549019607844,0.49411764705882355,0.7058823529411765,0.5450980392156862,0.5607843137254902,0.4745098039215686
332,26.63860809803009,0,0.1758821365192038,0.6971625961890437,0.48453983268756273,0.7446913268623399,0.5482601956616612,0.6540618993866468,0.41117804809468345,0.396078431372549,0.396078431372549,0.37254901960784315,0.47058823529411764,0.4549019607843137,0.596078431372549,0.49411764705882355,0.2823529411764706
333,26.64175510406494,0,0.12131684538117697,0.614041472484442,0.5114587123309827,0.7435907087433306,0.5448024711824735,0.5591107365072838,0.44192810068824384,0.403921568627451,0.4627450980392157,0.39215686274509803,0.4,0.5137254901960784,0.4549019607843137,0.5333333333333333,0.7215686274509804
334,26.668139100074768,0,0.12186248205159687,0.5691160406564879,0.5185522010729241,0.7435203542184802,0.5404157257128386,0.5077913870470743,0.45003115530180543,0.5647058823529412,0.4235294117647059,0.5019607843137255,0.49411764705882355,0.5098039215686274,0.47843137254901963,0.7294117647058823,0.43137254901960786
335,26.6985080242157,0,0.147326296502647,0.5974899968162503,0.4978173881309795,0.74353958746224,0.5370371511378933,0.5402036068629661,0.4263453037014293,0.6196078431372549,0.5568627450980392,0.6666666666666666,0.5764705882352941,0.48627450980392156,0.47058823529411764,0.3803921568627451,0.6431372549019608
336,26.700369000434875,0,0.1340487526067021,0.6378683173243778,0.46926154997691816,0.7427544030511755,0.5347059075333723,0.5863286869447465,0.3937253159187942,0.5137254901960784,0.49411764705882355,0.22745098039215686,0.45098039215686275,0.4823529411764706,0.47843137254901963,0.40784313725490196,0.49411764705882355
337,26.72814500331879,0,0.18534012687244575,0.6425973087760078,0.48672244492908234,0.7414131225869088,0.5330904299463989,0.5917307221623477,0.4136712960346839,0.3254901960784314,0.4980392156862745,0.5647058823529412,0.42745098039215684,0.5098039215686274,0.5176470588235295,0.6549019607843137,0.6078431372549019
338,26.758499026298523,0,0.15805747385345056,0.6267733722599851,0.5323754092042217,0.740708705034208,0.5307779557751134,0.57365467715043,0.46582172246803716,0.6588235294117647,0.3686274509803922,0.4588235294117647,0.5725490196078431,0.4980392156862745,0.47058823529411764,0.38823529411764707,0.49411764705882355
339,26.760664105415344,0,0.11986175217687536,0.5805747534344695,0.5481993449752461,0.7414113779785146,0.5263371699966846,0.5208809370300196,0.4838977666289264,0.396078431372549,0.6,0.788235294117647,0.7019607843137254,0.49411764705882355,0.47843137254901963,0.49019607843137253,0.5607843137254902
340,26.78826200962067,0,0.15441979671756034,0.5818479441570221,0.49527100780337174,0.7419658528224531,0.5222620243516695,0.5223353319453627,0.42343651514728586,0.4549019607843137,0.5490196078431373,0.3686274509803922,0.41568627450980394,0.5058823529411764,0.6235294117647059,0.49411764705882355,0.3568627450980392
341,26.818191051483154,0,0.19025100590586133,0.6358675874496563,0.4978173881309795,0.7410561161374745,0.5215605726332389,0.5840432073970034,0.4263453037014293,0.6,0.6196078431372549,0.5529411764705883,0.5137254901960784,0.4823529411764706,0.4745098039215686,0.43529411764705883,0.5333333333333333
342,26.821417093276978,0,0.17479084082841861,0.6451436939461037,0.5192797379900984,0.7405573879144425,0.5209098464676531,0.5946395162481763,0.4508622373811199,0.5372549019607843,0.5529411764705883,0.396078431372549,0.47058823529411764,0.5058823529411764,0.4588235294117647,0.403921568627451,0.4196078431372549
343,26.848374009132385,0,0.16187704229611719,0.6413241180534553,0.5261913424282464,0.7413131948222067,0.5188067721102307,0.5902763272470047,0.45875752138975,0.49019607843137253,0.4470588235294118,0.403921568627451,0.6509803921568628,0.5058823529411764,0.34901960784313724,0.37254901960784315,0.3137254901960784
344,26.8783620595932,0,0.13423064391347836,0.6020371044110858,0.5271007639472134,0.7423307866022246,0.5165743158922421,0.545397871986253,0.45979637441440735,0.5764705882352941,0.4117647058823529,0.4980392156862745,0.37254901960784315,0.5019607843137255,0.47058823529411764,0.5333333333333333,0.42745098039215684
345,26.88038206100464,0,0.14205165348063337,0.5909421630716841,0.5238268463299323,0.7430027586939368,0.5150930327319172,0.5327238664470787,0.4560565033554352,0.4823529411764706,0.7254901960784313,0.6862745098039216,0.5843137254901961,0.4745098039215686,0.6509803921568628,0.5058823529411764,0.5882352941176471
346,26.908169031143192,0,0.1427792000827842,0.623135687674113,0.4981811569620658,0.7433044482918498,0.513999767499018,0.5694992667538575,0.42676084516660084,0.5215686274509804,0.2901960784313726,0.36470588235294116,0.34509803921568627,0.5019607843137255,0.592156862745098,0.5294117647058824,0.5529411764705883
347,26.93830907344818,0,0.13004729285725908,0.5862131678950632,0.5176427791814578,0.7432657137303575,0.5119251430238473,0.5273218269743352,0.4489923018516338,0.6784313725490196,0.5607843137254902,0.596078431372549,0.6274509803921569,0.4980392156862745,0.48627450980392156,0.596078431372549,0.592156862745098
348,26.940453052520752,0,0.12277190133556941,0.6031284112768439,0.540014550932043,0.7438549786187604,0.508962402242358,0.5466444968072816,0.474548088981496,0.5372549019607843,0.3333333333333333,0.2901960784313726,0.3176470588235294,0.49019607843137253,0.2823529411764706,0.396078431372549,0.3764705882352941
349,26.9685240983963,0,0.13150234881165151,0.5760276458396341,0.4996362315414128,0.7441174783549417,0.5059242560819602,0.5156866719067328,0.4284230101762583,0.5137254901960784,0.5529411764705883,0.49411764705882355,0.4470588235294118,0.5019607843137255,0.5333333333333333,0.5176470588235295,0.5058823529411764
350,26.99816107749939,0,0.1400509273309028,0.6022189882678803,0.4939978178258175,0.7438039169096637,0.5042356453621332,0.5456056420805673,0.4219821210829713,0.4470588235294118,0.5843137254901961,0.6862745098039216,0.49019607843137253,0.49019607843137253,0.5176470588235295,0.5333333333333333,0.615686274509804
351,27.000359058380127,0,0.16715168904312172,0.6107675518871679,0.4519825388815484,0.7432866617965144,0.5024440091339186,0.5553708620441978,0.37398710589721895,0.43137254901960786,0.4470588235294118,0.5333333333333333,0.6313725490196078,0.5058823529411764,0.49019607843137253,0.4745098039215686,0.47843137254901963
352,27.028477072715763,0,0.18024735653225402,0.577118952705392,0.5358312114232956,0.7424291016679478,0.5011452928593264,0.5169332967277616,0.4697693644723522,0.6392156862745098,0.5176470588235295,0.5058823529411764,0.6431372549019608,0.4980392156862745,0.4745098039215686,0.5764705882352941,0.611764705882353
353,27.05855405330658,0,0.15005455435456463,0.5569297924513282,0.5220080025469997,0.743189827520355,0.497328753495174,0.49387075668687136,0.4539787964550919,0.41568627450980394,0.3607843137254902,0.47058823529411764,0.33725490196078434,0.5058823529411764,0.5647058823529412,0.4627450980392157,0.3686274509803922
354,27.061648011207577,0,0.19206984447380646,0.5691160406564879,0.5154601673124373,0.7435714584790012,0.4948858592085708,0.5077913870470743,0.4464990543371476,0.4,0.6039215686274509,0.7529411764705882,0.9254901960784314,0.49019607843137253,0.5176470588235295,0.5294117647058824,0.4666666666666667
355,27.0887610912323,0,0.17624589678281097,0.5985813036820082,0.5325572938060144,0.7440639912146629,0.4937429024224357,0.5414502316839949,0.46602949341338,0.49411764705882355,0.38823529411764707,0.4549019607843137,0.4823529411764706,0.4980392156862745,0.35294117647058826,0.5137254901960784,0.5882352941176471
356,27.11890208721161,0,0.10858493815565193,0.6087668257374373,0.5098217534105923,0.7446584516319664,0.4923658787618013,0.5530853867515971,0.44005816503110345,0.4235294117647059,0.5019607843137255,0.43137254901960786,0.4392156862745098,0.49411764705882355,0.49411764705882355,0.4627450980392157,0.47843137254901963
357,27.1212340593338,0,0.10185522055429132,0.5656602399274103,0.5214623502316181,0.7450270575996504,0.48979545360158666,0.5038437467448161,0.45335548532112036,0.49019607843137253,0.4980392156862745,0.4196078431372549,0.3764705882352941,0.5490196078431373,0.5333333333333333,0.4588235294117647,0.5137254901960784
358,27.14853310585022,0,0.08821389404479367,0.5127319025692865,0.49672608238271876,0.7455692903988329,0.48582119312831956,0.4433824950504184,0.42509868015694335,0.4980392156862745,0.788235294117647,0.6509803921568628,0.5411764705882353,0.5137254901960784,0.5803921568627451,0.5137254901960784,0.41568627450980394
359,27.17807102203369,0,0.1373226471290396,0.5736631519763145,0.4843579473407718,0.7453892723434126,0.4833021360474561,0.5129856564255034,0.4109702762983121,0.5647058823529412,0.42745098039215684,0.7333333333333333,0.6431372549019608,0.5137254901960784,0.4,0.4980392156862745,0.4823529411764706
360,27.179979085922238,0,0.16806111205208518,0.6998908689409251,0.508184794490202,0.7451123306538419,0.4832254498706778,0.6571784678219322,0.43818822937396307,0.5058823529411764,0.3058823529411765,0.3333333333333333,0.5725490196078431,0.48627450980392156,0.5803921568627451,0.5254901960784314,0.3686274509803922
361,27.20842003822327,0,0.19443433833712603,0.616951621643136,0.5272826485490062,0.7455456105312394,0.48169191951857665,0.5624350665265987,0.46000414535975026,0.43529411764705883,0.3254901960784314,0.3568627450980392,0.3568627450980392,0.49411764705882355,0.4549019607843137,0.5176470588235295,0.396078431372549
362,27.23867702484131,0,0.14205165348063337,0.4969079669845115,0.5558384870755666,0.7464672105532979,0.47878457898940036,0.4253064511022862,0.4926241335678996,0.3803921568627451,0.5137254901960784,0.7647058823529411,0.6901960784313725,0.49411764705882355,0.3764705882352941,0.49019607843137253,0.5098039215686274
363,27.241350054740906,0,0.13477628058389826,0.46144052178480854,0.5532921063754598,0.7475439317924498,0.47545836394199126,0.3847911763324213,0.48971534458824184,0.6666666666666666,0.5647058823529412,0.4823529411764706,0.39215686274509803,0.49019607843137253,0.43529411764705883,0.42745098039215684,0.5843137254901961
364,27.26820504665375,0,0.08584938155651953,0.502910149158694,0.5249181517056938,0.7482211377093445,0.47213411051523996,0.4321628812352305,0.4573031264744069,0.403921568627451,0.4980392156862745,0.5215686274509804,0.34509803921568627,0.5019607843137255,0.6627450980392157,0.5333333333333333,0.5647058823529412
365,27.298278093338013,0,0.11877047883603564,0.5369225175440554,0.4563477626195894,0.7479625952556184,0.4695629509174429,0.47101598844235243,0.37897360092619137,0.4745098039215686,0.8705882352941177,0.5254901960784314,0.5725490196078431,0.5176470588235295,0.5490196078431373,0.5333333333333333,0.4980392156862745
366,27.30042910575867,0,0.16296835288686606,0.6049472535697799,0.48035649317881524,0.7473802790147951,0.4683672244080417,0.5487222020055679,0.40639932358553965,0.5372549019607843,0.45098039215686275,0.3764705882352941,0.611764705882353,0.5372549019607843,0.5843137254901961,0.5529411764705883,0.5686274509803921
367,27.32815003395081,0,0.17533647749883843,0.540014550932043,0.4983630415638585,0.7473988059049124,0.4662910502099999,0.474548088981496,0.4269686161119437,0.5686274509803921,0.45098039215686275,0.5254901960784314,0.6352941176470588,0.48627450980392156,0.2980392156862745,0.42745098039215684,0.47058823529411764
368,27.35824203491211,0,0.16442342374122218,0.5394688974991639,0.5463805026823101,0.7481146910664478,0.4633032900420817,0.4739247765709816,0.48182006143064027,0.4745098039215686,0.6313725490196078,0.6313725490196078,0.5333333333333333,0.4627450980392157,0.5137254901960784,0.6039215686274509,0.4823529411764706
369,27.36057507991791,0,0.12968351024370636,0.5129137869103297,0.5487449984081252,0.7489919567595832,0.46013431101755103,0.44359026569790133,0.4845210790394408,0.5882352941176471,0.5333333333333333,0.6470588235294118,0.5137254901960784,0.49411764705882355,0.5058823529411764,0.5764705882352941,0.3764705882352941
370,27.388621091842648,0,0.12913787357328654,0.4461622405641603,0.5603855931804058,0.7497212030683322,0.4573294743163008,0.3673384458585891,0.4978183969891294,0.43529411764705883,0.39215686274509803,0.1411764705882353,0.19607843137254902,0.49411764705882355,0.5843137254901961,0.5254901960784314,0.5411764705882353
371,27.418256044387817,0,0.15623863528550538,0.5372862860026426,0.5636595137776798,0.7503719419993452,0.4568620567077725,0.47143152948200967,0.5015582714522155,0.4549019607843137,0.4392156862745098,0.3568627450980392,0.2784313725490196,0.4980392156862745,0.5333333333333333,0.47058823529411764,0.5411764705882353
372,27.42092800140381,0,0.16806111205208518,0.6064023281491269,0.536194980626881,0.7505901457028851,0.4570184446807657,0.5503843670152254,0.470184906363038,0.45098039215686275,0.44313725490196076,0.7607843137254902,0.7529411764705882,0.5019607843137255,0.47058823529411764,0.403921568627451,0.5058823529411764
373,27.44855809211731,0,0.12986540155048282,0.5252819209092793,0.5272826485490062,0.750670355137591,0.4557458856176868,0.4577186683650927,0.46000414535975026,0.5843137254901961,0.4117647058823529,0.3568627450980392,0.49411764705882355,0.5058823529411764,0.3843137254901961,0.4,0.5137254901960784
374,27.478553056716922,0,0.17188069166972458,0.4790833028287618,0.5532921063754598,0.7508019879684998,0.455226508039496,0.40494492909571084,0.48971534458824184,0.6431372549019608,0.43137254901960786,0.24705882352941178,0.30196078431372547,0.4980392156862745,0.5019607843137255,0.5098039215686274,0.5764705882352941
375,27.480841994285587,0,0.15496543338798016,0.4981811569620658,0.545834849249431,0.7511983034236537,0.45345952185134786,0.42676084516660084,0.4811967490201259,0.7333333333333333,0.6039215686274509,0.8,0.592156862745098,0.5058823529411764,0.41568627450980394,0.4549019607843137,0.43529411764705883
376,27.508448004722595,0,0.11131319600756961,0.5047289923828778,0.5412877412820964,0.7513167963747549,0.45247316366775586,0.4342405874973023,0.47600248347132484,0.47843137254901963,0.48627450980392156,0.35294117647058826,0.3411764705882353,0.5098039215686274,0.6392156862745098,0.6352941176470588,0.49411764705882355
377,27.538613080978394,0,0.12604583310781614,0.5172790107228706,0.5383775921234024,0.751048539430873,0.45273255587342426,0.44857676081197656,0.4726781534520099,0.3803921568627451,0.41568627450980394,0.3803921568627451,0.5019607843137255,0.49019607843137253,0.396078431372549,0.4666666666666667,0.4549019607843137
378,27.541126012802124,0,0.164059663477615,0.576391417278214,0.5298290288766139,0.7505556364978205,0.4534338271738162,0.516102216350504,0.4629129339138937,0.47843137254901963,0.5490196078431373,0.6901960784313725,0.49019607843137253,0.4980392156862745,0.5372549019607843,0.5019607843137255,0.4666666666666667
379,27.568394064903263,0,0.17206256807653722,0.5487449984081252,0.5560203713048603,0.75035357680464,0.45335614869782437,0.4845210790394408,0.4928319040877282,0.5294117647058824,0.4745098039215686,0.6627450980392157,0.4980392156862745,0.48627450980392156,0.6901960784313725,0.5176470588235295,0.44313725490196076
380,27.598578095436093,0,0.12931976488006292,0.4925427432464704,0.537104401773349,0.7501287180583479,0.4528110772931303,0.4203199560733138,0.47122375896218105,0.4117647058823529,0.42745098039215684,0.35294117647058826,0.5411764705882353,0.4980392156862745,0.6352941176470588,0.5254901960784314,0.4980392156862745
381,27.60048508644104,0,0.06238633423010012,0.4838122957703883,0.5083666788312453,0.7495554908017439,0.45205778006836833,0.41034696601536896,0.438396000021446,0.4980392156862745,0.5843137254901961,0.5294117647058824,0.6470588235294118,0.4980392156862745,0.43137254901960786,0.4745098039215686,0.5568627450980392
382,27.628425002098087,0,0.11076755933714971,0.48817751950842936,0.47690069058724216,0.7487135427907335,0.45205737412778096,0.4153334610443414,0.4024516811557104,0.4117647058823529,0.4980392156862745,0.396078431372549,0.4588235294117647,0.5137254901960784,0.39215686274509803,0.4549019607843137,0.4588235294117647
383,27.65853500366211,0,0.15951254843279758,0.622408148521944,0.46762459154077657,0.7472349233495665,0.4558234538854898,0.5686681821214575,0.3918553808148224,0.5450980392156862,0.47058823529411764,0.3803921568627451,0.36470588235294116,0.48627450980392156,0.5372549019607843,0.5058823529411764,0.49411764705882355
384,27.68888509273529,0,0.1609676230121446,0.6698799580700122,0.4996362315414128,0.7459100422042046,0.4587063856411751,0.6228963171572109,0.4284230101762583,0.47058823529411764,0.4470588235294118,0.3607843137254902,0.47058823529411764,0.5098039215686274,0.41568627450980394,0.3686274509803922,0.6078431372549019
