,time,gesture,ax,ay,az,qw,qx,qy,qz,e0,e1,e2,e3,e4,e5,e6,e7
0,11.38741099834442,0,0.5672632127193277,0.5564045752475669,0.8604464079839135,0.5403926953044321,0.32348423733340365,0.46676334427789723,0.8322455856207372,0.47843137254901963,0.49411764705882355,0.5019607843137255,0.4980392156862745,0.5058823529411764,0.5450980392156862,0.3411764705882353,0.4980392156862745
1,11.388834953308105,0,0.5700784157894578,0.5523828601058709,0.8618539971642635,0.5401494402353736,0.3235449892200796,0.4619289257677835,0.8339376187330699,0.5058823529411764,0.5058823529411764,0.5058823529411764,0.5098039215686274,0.5137254901960784,0.49411764705882355,0.6196078431372549,0.6078431372549019
2,11.38980495929718,0,0.5704805864799798,0.5568067500563272,0.8574301113320454,0.5400606094128088,0.3236352507218531,0.4672467900892663,0.8286197593620342,0.5137254901960784,0.5098039215686274,0.4980392156862745,0.4980392156862745,0.5098039215686274,0.5450980392156862,0.6078431372549019,0.5333333333333333
3,11.391228914260864,0,0.5738990497041314,0.5543937176767189,0.855821420333481,0.5399391105899038,0.3235749592267564,0.4643461350228404,0.8266859860174522,0.49019607843137253,0.4745098039215686,0.48627450980392156,0.49019607843137253,0.47843137254901963,0.5019607843137255,0.47058823529411764,0.44313725490196076
4,11.392412900924684,0,0.5708827612887402,0.5551980631760012,0.8580333673678283,0.5398224879573815,0.3236344933034485,0.4653130216951314,0.8293449206534173,0.5215686274509804,0.5294117647058824,0.5137254901960784,0.5058823529411764,0.49411764705882355,0.5019607843137255,0.7058823529411765,0.5803921568627451
5,11.404942989349365,0,0.571687102669784,0.5533882868321757,0.8598431395934153,0.5396941921706233,0.32363606754562285,0.4631375279200884,0.8315204094780131,0.5098039215686274,0.4980392156862745,0.49411764705882355,0.4980392156862745,0.5019607843137255,0.47058823529411764,0.36470588235294116,0.4745098039215686
6,11.406937956809998,0,0.5706816759434792,0.5551980631760012,0.8588377005123954,0.5395782873529289,0.323665230629424,0.4653130216951314,0.8303117924743668,0.47843137254901963,0.47843137254901963,0.4980392156862745,0.49019607843137253,0.5058823529411764,0.615686274509804,0.6039215686274509,0.5294117647058824
7,11.43521499633789,0,0.5708827612887402,0.5539915469861969,0.8590387940941331,0.5394910357229855,0.3237249429222114,0.4638626941619184,0.8305535228057221,0.5176470588235295,0.5058823529411764,0.49411764705882355,0.49019607843137253,0.47843137254901963,0.49019607843137253,0.3607843137254902,0.45098039215686275
8,11.465736985206606,0,0.5708827612887402,0.5513774333795661,0.8592398876758708,0.5394910357229855,0.3237249429222114,0.4607203236154786,0.8307952531370771,0.49411764705882355,0.47843137254901963,0.5019607843137255,0.5098039215686274,0.48627450980392156,0.4588235294117647,0.6352941176470588,0.5215686274509804
9,11.467950940132141,0,0.5704805864799798,0.5505730878802838,0.8608485704379585,0.5394881248600972,0.3237557743066816,0.4597534369431876,0.832729016580765,0.4980392156862745,0.49019607843137253,0.49411764705882355,0.4980392156862745,0.49411764705882355,0.4745098039215686,0.49019607843137253,0.5490196078431373
10,11.495346903800964,0,0.5710838466340011,0.5523828601058709,0.8588377005123954,0.5394821843235905,0.3238476694559944,0.4619289257677835,0.8303117924743668,0.48627450980392156,0.4980392156862745,0.5058823529411764,0.5058823529411764,0.5372549019607843,0.6313725490196078,0.9215686274509803,0.4745098039215686
11,11.525494933128355,0,0.5684697289091318,0.5531872014869147,0.8562235951422413,0.5394869615050314,0.32390709165258236,0.46289580748962744,0.8271694318288213,0.5176470588235295,0.5137254901960784,0.49019607843137253,0.5019607843137255,0.4980392156862745,0.4980392156862745,0.35294117647058826,0.4823529411764706
12,11.527653932571411,0,0.5718881880150449,0.551578518724827,0.8578322737860905,0.539511144439061,0.3239687870944735,0.4609620440459396,0.829103190322062,0.5019607843137255,0.48627450980392156,0.5058823529411764,0.4980392156862745,0.49019607843137253,0.4,0.3215686274509804,0.5372549019607843
13,11.555335998535154,0,0.5682686435638709,0.551980689415349,0.8600442208204381,0.5395725299829645,0.3241196519695103,0.46144548490686155,0.831762124958027,0.5098039215686274,0.5137254901960784,0.4980392156862745,0.49411764705882355,0.49019607843137253,0.5215686274509804,0.34509803921568627,0.5058823529411764
14,11.5854469537735,0,0.5692740702901756,0.5525839454511318,0.8600442208204381,0.5396407471438507,0.3242690980464115,0.4621706461982445,0.831762124958027,0.48627450980392156,0.5019607843137255,0.4980392156862745,0.49411764705882355,0.5019607843137255,0.49019607843137253,0.6039215686274509,0.4470588235294118
15,11.587804913520813,0,0.5664588713382838,0.5606273798527622,0.8590387940941331,0.5396410342697819,0.3245107600615968,0.4718394881689191,0.8305535228057221,0.5019607843137255,0.5019607843137255,0.4980392156862745,0.49411764705882355,0.4980392156862745,0.4823529411764706,0.4235294117647059,0.5176470588235295
16,11.645484924316404,0,0.5642469284221748,0.5525839454511318,0.8574301113320454,0.5395437777862716,0.32478405147332307,0.4621706461982445,0.8286197593620342,0.5058823529411764,0.5137254901960784,0.5058823529411764,0.4980392156862745,0.5137254901960784,0.5058823529411764,0.5450980392156862,0.5843137254901961
17,11.64783799648285,0,0.5777196795005665,0.5300623291265665,0.8791473821573285,0.5397320630908541,0.3252358421458263,0.4350978886803557,0.854725630207632,0.48627450980392156,0.49411764705882355,0.5058823529411764,0.5019607843137255,0.49411764705882355,0.5333333333333333,0.3803921568627451,0.4470588235294118
18,11.649457931518555,0,0.57570881781148,0.5439372550137185,0.8793484633843511,0.5401217177316753,0.3258709765866278,0.45177664293618697,0.854967345687646,0.4980392156862745,0.49019607843137253,0.5019607843137255,0.4980392156862745,0.47058823529411764,0.49019607843137253,0.49019607843137253,0.5058823529411764
19,11.675472974777222,0,0.5662577818747844,0.5938065483038273,0.8707017688286992,0.5402387413504117,0.326324947436029,0.5117234631543692,0.8445733374751413,0.49411764705882355,0.49019607843137253,0.4980392156862745,0.4980392156862745,0.5411764705882353,0.49019607843137253,0.43529411764705883,0.4745098039215686
20,11.706004977226256,0,0.575306647120958,0.5676653875280879,0.8650713709249156,0.5404884716042626,0.3258097197543487,0.4802997279872887,0.8378051555213398,0.4980392156862745,0.4980392156862745,0.48627450980392156,0.49019607843137253,0.4745098039215686,0.5058823529411764,0.5411764705882353,0.5176470588235295
21,11.70745599269867,0,0.5775185941553054,0.553790461640936,0.8592398876758708,0.5408465275413148,0.3247833287080481,0.46362097373145744,0.8307952531370771,0.5098039215686274,0.5098039215686274,0.5098039215686274,0.5058823529411764,0.4823529411764706,0.49019607843137253,0.49411764705882355,0.49411764705882355
22,11.735560894012453,0,0.5708827612887402,0.5624371520783493,0.8507942867019569,0.5413035132129932,0.3238156796669054,0.47401497699351497,0.8206429752559278,0.49411764705882355,0.49411764705882355,0.5568627450980392,0.5725490196078431,0.615686274509804,0.49411764705882355,0.48627450980392156,0.49019607843137253
23,11.765676975250244,0,0.5775185941553054,0.5628393227688713,0.834707417898696,0.5421165152375231,0.32272853673392876,0.4744984178544369,0.8013052913145786,0.5019607843137255,0.5058823529411764,0.38823529411764707,0.43137254901960786,0.49411764705882355,0.5450980392156862,0.5137254901960784,0.5137254901960784
24,11.767849922180176,0,0.5823446506780453,0.6026543199682632,0.7769957673157408,0.5426878958405338,0.32188311720168133,0.5223591818964407,0.7319313396552886,0.4980392156862745,0.47843137254901963,0.5254901960784314,0.5019607843137255,0.43137254901960786,0.4745098039215686,0.47843137254901963,0.49411764705882355
25,11.795257925987244,0,0.6048662670026106,0.5928011174592841,0.7971043594971747,0.5436897871241911,0.32136841624757123,0.5105148560516173,0.7561034520076456,0.5058823529411764,0.5411764705882353,0.5568627450980392,0.5333333333333333,0.5254901960784314,0.5019607843137255,0.5137254901960784,0.5098039215686274
26,11.825607895851135,0,0.5726925293960887,0.5809370532612186,0.8423486692550894,0.5444135325877065,0.3214895863607895,0.4962533160012899,0.81049067757299,0.5019607843137255,0.5098039215686274,0.4666666666666667,0.49411764705882355,0.5411764705882353,0.5764705882352941,0.5098039215686274,0.4980392156862745
27,11.827650904655455,0,0.5984315194813062,0.5779207648458274,0.833701978817676,0.5455582838734577,0.32073496693895887,0.4926274996434811,0.8000966743109325,0.49411764705882355,0.4980392156862745,0.5333333333333333,0.5803921568627451,0.43529411764705883,0.5058823529411764,0.49019607843137253,0.4980392156862745
28,11.855268955230713,0,0.589382658353371,0.5564045752475669,0.8463703926332621,0.5470759028339512,0.3205823793083351,0.46676334427789723,0.8153251059839979,0.49411764705882355,0.4980392156862745,0.4823529411764706,0.49019607843137253,0.45098039215686275,0.36470588235294116,0.48627450980392156,0.48627450980392156
29,11.886079907417296,0,0.5628393227688713,0.5513774333795661,0.8564246804875022,0.5490322601181531,0.3218228158056904,0.4607203236154786,0.8274111522592823,0.5058823529411764,0.5098039215686274,0.5372549019607843,0.5215686274509804,0.5450980392156862,0.5372549019607843,0.5058823529411764,0.5058823529411764
30,11.888799905776978,0,0.5841544270218708,0.5728936229778265,0.8481801525041339,0.5519040837807329,0.3236957897393043,0.48658447898106255,0.8175005799572524,0.4980392156862745,0.4823529411764706,0.47843137254901963,0.4588235294117647,0.4627450980392157,0.49019607843137253,0.5019607843137255,0.49411764705882355
31,11.915629982948305,0,0.5907902598884361,0.605268441811371,0.8489845021216548,0.555800343063013,0.3261433947394876,0.5255015623437747,0.8184674715799907,0.49411764705882355,0.48627450980392156,0.47843137254901963,0.49411764705882355,0.47843137254901963,0.49019607843137253,0.4980392156862745,0.5058823529411764
32,11.945318937301636,0,0.5829479108320667,0.5885783128540888,0.8574301113320454,0.5605141983847215,0.32825829999260847,0.5054387121605954,0.8286197593620342,0.4980392156862745,0.4980392156862745,0.5254901960784314,0.5098039215686274,0.4470588235294118,0.5294117647058824,0.4980392156862745,0.49019607843137253
33,11.976159930229187,0,0.5837522563313489,0.5704805864799798,0.869294175530111,0.565684395819987,0.33010081184510504,0.4836838189641895,0.8428812994123617,0.5019607843137255,0.5019607843137255,0.49411764705882355,0.5411764705882353,0.6039215686274509,0.5294117647058824,0.5137254901960784,0.5294117647058824
34,11.978144884109495,0,0.5827468254868057,0.5407198812530662,0.8618539971642635,0.5709714337074466,0.3315511898728783,0.4479091061479171,0.8339376187330699,0.5019607843137255,0.5137254901960784,0.5019607843137255,0.4627450980392157,0.5333333333333333,0.49411764705882355,0.5019607843137255,0.49019607843137253
35,12.005286931991575,0,0.5833500774043502,0.5252362684855882,0.8576311966773064,0.5762247491493362,0.33318330326869056,0.42929658349795097,0.8288614797924951,0.5019607843137255,0.49411764705882355,0.5176470588235295,0.5019607843137255,0.4470588235294118,0.4980392156862745,0.5019607843137255,0.4980392156862745
36,12.007466912269592,0,0.5710838466340011,0.5240297522957841,0.8582344609495662,0.5813631003584782,0.33535847872998575,0.42784625596473796,0.8295866509847722,0.5098039215686274,0.5176470588235295,0.5019607843137255,0.4666666666666667,0.4549019607843137,0.48627450980392156,0.5019607843137255,0.5058823529411764
37,12.035309910774233,0,0.5616328106973055,0.5431329095144363,0.8578322737860905,0.5863523738039825,0.3382586466724181,0.45080975626389597,0.829103190322062,0.4745098039215686,0.49411764705882355,0.47843137254901963,0.4666666666666667,0.4235294117647059,0.5137254901960784,0.4627450980392157,0.5098039215686274
38,12.065537929534912,0,0.5549969778307402,0.5648501844579576,0.852000790537046,0.5909159434529637,0.3411289510427862,0.47691563205994086,0.8220932879377995,0.5098039215686274,0.5098039215686274,0.49411764705882355,0.5098039215686274,0.5215686274509804,0.4235294117647059,0.5058823529411764,0.49411764705882355
39,12.067807912826538,0,0.5435350802049581,0.5724914440508279,0.8562235951422413,0.5950587399507223,0.3435458924786555,0.48610102821924633,0.8271694318288213,0.4980392156862745,0.49411764705882355,0.4823529411764706,0.4196078431372549,0.42745098039215684,0.44313725490196076,0.4745098039215686,0.47843137254901963
40,12.09573495388031,0,0.5330786175419577,0.5527850307963927,0.8620550742730476,0.5990009740351179,0.3453296791575143,0.46241236662870544,0.8341793292626367,0.48627450980392156,0.4823529411764706,0.4745098039215686,0.5058823529411764,0.6392156862745098,0.5137254901960784,0.5137254901960784,0.49019607843137253
41,12.126122951507568,0,0.5328775321966969,0.5435350802049581,0.8640659441986107,0.6026627009361102,0.34705149019917664,0.45129319712481797,0.8365965533690348,0.5019607843137255,0.49411764705882355,0.5058823529411764,0.5019607843137255,0.4823529411764706,0.5254901960784314,0.5294117647058824,0.5372549019607843
42,12.128495931625366,0,0.5268449553659144,0.5622360667330883,0.8743213297528272,0.6061175684550422,0.3491055237648019,0.47377325656305397,0.8489243349261214,0.5098039215686274,0.5019607843137255,0.4980392156862745,0.611764705882353,0.5294117647058824,0.5372549019607843,0.4627450980392157,0.49019607843137253
43,12.155837893486025,0,0.520008037154088,0.55982303435348,0.867484395068047,0.609193786177032,0.3507978311319033,0.4708726014966281,0.8407058006868715,0.5019607843137255,0.5019607843137255,0.4745098039215686,0.43529411764705883,0.3176470588235294,0.4823529411764706,0.5529411764705883,0.49411764705882355
44,12.186400890350342,0,0.5105570012173924,0.5373014180289147,0.8789462968120675,0.6120296695937455,0.35236914858206053,0.4437998439787393,0.8544839097771711,0.5019607843137255,0.49019607843137253,0.4627450980392157,0.5019607843137255,0.6039215686274509,0.4980392156862745,0.4823529411764706,0.48627450980392156
45,12.187870979309082,0,0.5075407128020012,0.5437361655502191,0.8916147188641305,0.6146721489435867,0.3544233318987103,0.4515349175552789,0.8697123513511307,0.47843137254901963,0.47058823529411764,0.47843137254901963,0.4666666666666667,0.3803921568627451,0.4470588235294118,0.4549019607843137,0.4627450980392157
46,12.215425968170164,0,0.5095515720201447,0.5700784157894578,0.888598397502832,0.616894949191012,0.35644804470879454,0.48320037810326755,0.8660864953897451,0.49019607843137253,0.47058823529411764,0.4980392156862745,0.4980392156862745,0.4823529411764706,0.5372549019607843,0.5372549019607843,0.49411764705882355
47,12.245356917381287,0,0.5123667734429794,0.5787251062268712,0.891212531700655,0.6187693864767855,0.35774724202300673,0.4935943813653251,0.8692288906884204,0.49411764705882355,0.4980392156862745,0.5294117647058824,0.5254901960784314,0.6,0.47843137254901963,0.49411764705882355,0.5019607843137255
48,12.247886896133425,0,0.5111602589004707,0.5618338960425665,0.8791473821573285,0.6203430543992204,0.35841192964284,0.473289815702132,0.854725630207632,0.5019607843137255,0.4980392156862745,0.48627450980392156,0.48627450980392156,0.4666666666666667,0.5176470588235295,0.4980392156862745,0.49411764705882355
49,12.276009917259215,0,0.5137743749780447,0.5427307388239143,0.8721093827184795,0.6216499724307125,0.35883486044642626,0.450326315402974,0.8462654002901565,0.5019607843137255,0.5137254901960784,0.5882352941176471,0.5058823529411764,0.5333333333333333,0.5058823529411764,0.47843137254901963,0.5058823529411764
50,12.305792927742006,0,0.5190026063095449,0.5513774333795661,0.8608485704379585,0.6226438885441095,0.35965070229492874,0.4607203236154786,0.832729016580765,0.5215686274509804,0.5372549019607843,0.4745098039215686,0.4588235294117647,0.48627450980392156,0.5058823529411764,0.4627450980392157,0.49411764705882355
51,12.3351548910141,0,0.5188015209642839,0.5736979561223936,0.8562235951422413,0.6234571875954648,0.3610406051660182,0.48755135080201223,0.8271694318288213,0.5058823529411764,0.5176470588235295,0.5058823529411764,0.5607843137254902,0.5882352941176471,0.5294117647058824,0.5294117647058824,0.5490196078431373
52,12.336769938468931,0,0.5204102078446099,0.5877739714730449,0.8622561678547853,0.624202848688243,0.36215852819683325,0.5044718304387517,0.8344210595939919,0.49411764705882355,0.48627450980392156,0.5137254901960784,0.5137254901960784,0.49411764705882355,0.49019607843137253,0.48627450980392156,0.48627450980392156
53,12.36551797389984,0,0.5210134638803928,0.5787251062268712,0.8564246804875022,0.6247543284939561,0.36264198588927526,0.4935943813653251,0.8274111522592823,0.5058823529411764,0.5098039215686274,0.4980392156862745,0.49019607843137253,0.47843137254901963,0.5098039215686274,0.5176470588235295,0.5019607843137255
54,12.397299885749815,0,0.5238286669505231,0.5648501844579576,0.8556203267517433,0.6253302635082887,0.36297435841178505,0.47691563205994086,0.826444255686097,0.48627450980392156,0.4745098039215686,0.47843137254901963,0.4588235294117647,0.5176470588235295,0.4745098039215686,0.4745098039215686,0.4980392156862745
55,12.398369908332825,0,0.5250351831403273,0.5626382374236103,0.8586366234036112,0.6258445951590458,0.3635484469588579,0.4742566974239759,0.8300700819448001,0.5058823529411764,0.4980392156862745,0.4823529411764706,0.48627450980392156,0.49411764705882355,0.5098039215686274,0.5215686274509804,0.49411764705882355
56,12.425204992294312,0,0.5286547275915014,0.5682686435638709,0.8538105668808714,0.6261411714936999,0.3641829019507964,0.48102488927867165,0.8242687817128425,0.49019607843137253,0.48627450980392156,0.4666666666666667,0.5137254901960784,0.49411764705882355,0.5058823529411764,0.5137254901960784,0.4980392156862745
57,12.42815899848938,0,0.5282525569009795,0.5702795011347188,0.8481801525041339,0.626413718358184,0.3648476257088935,0.48344209853372855,0.8175005799572524,0.5176470588235295,0.5098039215686274,0.5215686274509804,0.48627450980392156,0.5372549019607843,0.396078431372549,0.4823529411764706,0.5176470588235295
58,12.456132888793945,0,0.5328775321966969,0.5763120779655013,0.8562235951422413,0.6264782870395657,0.36554262194598436,0.49069373124934623,0.8271694318288213,0.5019607843137255,0.5098039215686274,0.4980392156862745,0.48627450980392156,0.43137254901960786,0.5411764705882353,0.49411764705882355,0.4823529411764706
59,12.485397934913635,0,0.5107580865626534,0.575105561775697,0.8576311966773064,0.6266324291105755,0.36623762065829885,0.4892434037161333,0.8288614797924951,0.5019607843137255,0.5058823529411764,0.5058823529411764,0.5372549019607843,0.5137254901960784,0.5137254901960784,0.5372549019607843,0.5137254901960784
60,12.487960934638975,0,0.4896440717731533,0.5821435653327843,0.8845766905976129,0.6267208936000555,0.3668116650968881,0.4977036385840558,0.8612520867805254,0.47058823529411764,0.4666666666666667,0.4,0.1568627450980392,0.3215686274509804,0.4470588235294118,0.4823529411764706,0.4823529411764706
61,12.51696491241455,0,0.4984918496149468,0.5831489961773275,0.8664789683417424,0.6265645584809852,0.367476273509568,0.49891224568680786,0.8394971985345667,0.5098039215686274,0.5058823529411764,0.5450980392156862,0.6823529411764706,0.5686274509803921,0.5215686274509804,0.48627450980392156,0.5058823529411764
62,12.545186996459961,0,0.5129700315378816,0.5692740702901756,0.8572290342232612,0.6265349053029224,0.3680201469533288,0.48223349143097655,0.8283780488324675,0.47843137254901963,0.4745098039215686,0.4666666666666667,0.4823529411764706,0.47843137254901963,0.5058823529411764,0.4980392156862745,0.4823529411764706
63,12.547661900520325,0,0.5037200830055661,0.5745023057399142,0.86909309018485,0.6263910453105164,0.3688965691555156,0.48851824242475034,0.8426395789819006,0.5098039215686274,0.5098039215686274,0.5372549019607843,0.5333333333333333,0.5529411764705883,0.5215686274509804,0.5215686274509804,0.5058823529411764
64,12.57573390007019,0,0.5023124814705011,0.5986326130630439,0.8873919183771736,0.6262349082093299,0.36971222263950637,0.5175247732872211,0.864636212410556,0.49411764705882355,0.4980392156862745,0.49019607843137253,0.49019607843137253,0.5019607843137255,0.5058823529411764,0.5019607843137255,0.5019607843137255
65,12.605068922042847,0,0.5049265971362511,0.5831489961773275,0.8867886376319601,0.6258449119876596,0.36944037527319595,0.49891224568680786,0.8639110214164905,0.5058823529411764,0.5058823529411764,0.5019607843137255,0.5490196078431373,0.5882352941176471,0.5294117647058824,0.5137254901960784,0.5019607843137255
66,12.634832978248596,0,0.5043233390413491,0.5652523551484796,0.8680876593403068,0.6252603879476276,0.36883578014048646,0.4773990729208628,0.8414309718791486,0.49411764705882355,0.49411764705882355,0.5411764705882353,0.5529411764705883,0.5843137254901961,0.4745098039215686,0.48627450980392156,0.49411764705882355
67,12.636358976364136,0,0.5015081376185142,0.5658556111842624,0.8491855792304389,0.6246911112846297,0.36865462991529335,0.47812423421224576,0.8187091821095573,0.5098039215686274,0.5215686274509804,0.5176470588235295,0.5333333333333333,0.5843137254901961,0.5333333333333333,0.4980392156862745,0.5058823529411764
68,12.66511595249176,0,0.48783429954756624,0.5831489961773275,0.8449627787434817,0.6240913646197991,0.3695309862765339,0.49891224568680786,0.8136330431689827,0.4980392156862745,0.5058823529411764,0.5725490196078431,0.5098039215686274,0.4666666666666667,0.5176470588235295,0.49019607843137253,0.49411764705882355
69,12.69497799873352,0,0.47214960184665106,0.6108988438333931,0.8522018758823069,0.6235423451862895,0.3711623991840831,0.5322697492480234,0.8223350083682605,0.5058823529411764,0.5058823529411764,0.5254901960784314,0.4980392156862745,0.5137254901960784,0.49411764705882355,0.5058823529411764,0.5058823529411764
70,12.696395993232727,0,0.4657148544077115,0.6201487944248276,0.8600442208204381,0.6231195918562313,0.3724616237257543,0.5433889187519109,0.831762124958027,0.47843137254901963,0.4627450980392157,0.4549019607843137,0.4470588235294118,0.40784313725490196,0.4666666666666667,0.49019607843137253,0.4823529411764706
71,12.724997997283936,0,0.4785843493679554,0.6115021081056528,0.849788847620937,0.6227286055451433,0.37306598965276355,0.5329949204403005,0.8194343582522816,0.49411764705882355,0.5098039215686274,0.5529411764705883,0.5411764705882353,0.47843137254901963,0.5098039215686274,0.4980392156862745,0.4980392156862745
72,12.754917979240416,0,0.4801930362482815,0.6024532387412407,0.8405388970295022,0.6223106046442906,0.37382159124329667,0.5221174664164269,0.8083151887483941,0.48627450980392156,0.5019607843137255,0.6078431372549019,0.6274509803921569,0.49019607843137253,0.5058823529411764,0.48627450980392156,0.49019607843137253
73,12.756356000900269,0,0.4868288695266707,0.6074803847274799,0.835511751043263,0.6219198757564511,0.3750907358783658,0.5281604920292925,0.8022721631355284,0.5098039215686274,0.5137254901960784,0.43529411764705883,0.45098039215686275,0.5058823529411764,0.4980392156862745,0.5058823529411764,0.5019607843137255
74,12.785136938095093,0,0.48743212720974893,0.6237683388760018,0.8427508317091345,0.6215476763920658,0.37717501073516824,0.5477398964011027,0.8109741085330177,0.5058823529411764,0.47843137254901963,0.47058823529411764,0.5019607843137255,0.49411764705882355,0.49019607843137253,0.5058823529411764,0.5058823529411764
75,12.815032958984375,0,0.49788859152004467,0.6420671547136101,0.8568268470597858,0.6214952511573935,0.37932077212499477,0.5697365149784167,0.8278945881697573,0.5137254901960784,0.5137254901960784,0.42745098039215684,0.45098039215686275,0.48627450980392156,0.49411764705882355,0.49019607843137253,0.49411764705882355
76,12.816444993019106,0,0.5081439708969033,0.6100945024523493,0.850995363810741,0.6217308231325699,0.3806800000457421,0.5313028675261794,0.8208846857854946,0.49411764705882355,0.5098039215686274,0.5333333333333333,0.5450980392156862,0.5019607843137255,0.5098039215686274,0.5058823529411764,0.5058823529411764
77,12.845085978507994,0,0.520611293189871,0.5775185941553054,0.8483812460858717,0.6220618793311987,0.3822208306625465,0.4921440587825592,0.8177423102886078,0.5137254901960784,0.5058823529411764,0.396078431372549,0.45098039215686275,0.49019607843137253,0.5294117647058824,0.5215686274509804,0.5254901960784314
78,12.87486696243286,0,0.5099537435343142,0.5797305370714144,0.8614518347102184,0.6223047977698553,0.38524237168652775,0.494802988468077,0.8334541877730421,0.47843137254901963,0.5058823529411764,0.7294117647058823,0.5686274509803921,0.5215686274509804,0.49411764705882355,0.48627450980392156,0.47843137254901963
79,12.876736998558044,0,0.5041222536960881,0.6191433676985229,0.8696963421023947,0.6224976523371009,0.3895944978394442,0.542180316599606,0.8433647353228365,0.49411764705882355,0.49019607843137253,0.5176470588235295,0.5450980392156862,0.49019607843137253,0.48627450980392156,0.49411764705882355,0.48627450980392156
80,12.905619978904724,0,0.5003016222523576,0.6237683388760018,0.8787452114668066,0.6231230819214291,0.3940652985852013,0.5477398964011027,0.8542421893467101,0.5215686274509804,0.5098039215686274,0.43137254901960786,0.43137254901960786,0.49019607843137253,0.47843137254901963,0.5058823529411764,0.5137254901960784
81,12.934800982475279,0,0.502714652161023,0.6171325060094365,0.8841745446165213,0.6240580679126787,0.39859726705518994,0.539763102394102,0.8607686756222862,0.4980392156862745,0.48627450980392156,0.40784313725490196,0.45098039215686275,0.5176470588235295,0.5058823529411764,0.4980392156862745,0.5058823529411764
82,12.965168952941895,0,0.5041222536960881,0.5767142486560232,0.8777397806222634,0.6250834639191143,0.40328021673572195,0.4911771721102682,0.8530335822439581,0.49411764705882355,0.48627450980392156,0.49411764705882355,0.5098039215686274,0.5019607843137255,0.49019607843137253,0.49411764705882355,0.49411764705882355
83,12.96667492389679,0,0.5167906633934359,0.6020510680507188,0.8654735416154374,0.625754036630447,0.41026080752277067,0.5216340255555049,0.8382885963822617,0.5019607843137255,0.5058823529411764,0.45098039215686275,0.48627450980392156,0.5058823529411764,0.5176470588235295,0.4823529411764706,0.47843137254901963
84,12.994618892669678,0,0.4998994507381881,0.6304041717425671,0.87009852926587,0.6264735346103601,0.418629134370218,0.5557166904081032,0.8438481959855467,0.49411764705882355,0.5058823529411764,0.48627450980392156,0.4980392156862745,0.4980392156862745,0.5058823529411764,0.5098039215686274,0.5137254901960784
85,12.996371984481812,0,0.4862256126672402,0.6468932194728269,0.8815604104186984,0.6272363836554317,0.4278463747754681,0.5755378251112686,0.8576262803236109,0.4980392156862745,0.48627450980392156,0.4745098039215686,0.4745098039215686,0.49019607843137253,0.47058823529411764,0.5058823529411764,0.5058823529411764
86,13.025150895118713,0,0.4862256126672402,0.6573496738993503,0.8958375193510875,0.6275994989494087,0.43751538506134374,0.5881073072970278,0.8747884902917054,0.49411764705882355,0.49019607843137253,0.4823529411764706,0.5098039215686274,0.5058823529411764,0.5058823529411764,0.49411764705882355,0.49019607843137253
87,13.085104942321776,0,0.4797908647341119,0.658154023516871,0.8998592262563068,0.6275101928839234,0.4471242721673236,0.5890741989197659,0.879622898900925,0.49019607843137253,0.4823529411764706,0.4627450980392157,0.4588235294117647,0.5019607843137255,0.5254901960784314,0.5176470588235295,0.5098039215686274
88,13.086451888084412,0,0.4910516733082185,0.634023724430218,0.8556203267517433,0.6268430706342117,0.45576502508834604,0.5600676779581892,0.826444255686097,0.5215686274509804,0.5294117647058824,0.5215686274509804,0.49411764705882355,0.5019607843137255,0.47058823529411764,0.47843137254901963,0.4980392156862745
89,13.08898389339447,0,0.5127689457807968,0.6380454313354372,0.800120639676089,0.6251195526783931,0.464013266960577,0.5649020865674088,0.7597292584645603,0.5019607843137255,0.49019607843137253,0.4823529411764706,0.49019607843137253,0.49411764705882355,0.5098039215686274,0.49019607843137253,0.4823529411764706
90,13.114947915077211,0,0.49245927401963585,0.6806756398414363,0.7685501581053501,0.6224571081754421,0.4730158134062038,0.6161469564376546,0.721779051873245,0.4666666666666667,0.4588235294117647,0.4745098039215686,0.4980392156862745,0.5019607843137255,0.49411764705882355,0.48627450980392156,0.4666666666666667
91,13.116156935691832,0,0.47214960184665106,0.7582947807876106,0.760506727821958,0.6198347969470415,0.481992518518026,0.7094512802170526,0.7121102148530174,0.4549019607843137,0.5294117647058824,0.5098039215686274,0.48627450980392156,0.4980392156862745,0.5098039215686274,0.5098039215686274,0.48627450980392156
92,13.145023941993713,0,0.4620953090505249,0.7840337708728281,0.760506727821958,0.6178376133256965,0.48945421850541776,0.7403915745232112,0.7121102148530174,0.5372549019607843,0.5568627450980392,0.5254901960784314,0.5254901960784314,0.5058823529411764,0.49019607843137253,0.49019607843137253,0.5254901960784314
93,13.175013899803162,0,0.44862255632483794,0.7641262722731321,0.7729740480558064,0.6164767849254054,0.494469303582044,0.7164611925022092,0.7270969161947277,0.7607843137254902,0.5607843137254902,0.47843137254901963,0.48627450980392156,0.49411764705882355,0.5098039215686274,0.49019607843137253,0.5294117647058824
94,13.177032947540285,0,0.4345465471515442,0.727528644716154,0.7778001169332616,0.6149669728199711,0.49776321721477185,0.6724679602980281,0.7328982312780267,0.5725490196078431,0.38823529411764707,0.49019607843137253,0.4980392156862745,0.5137254901960784,0.4980392156862745,0.4823529411764706,0.5333333333333333
95,13.204980969429016,0,0.42409008037030543,0.7253167100365218,0.7727729627105454,0.6126811781333387,0.5010020620740818,0.6698090405134045,0.7268551957642668,0.49019607843137253,0.5294117647058824,0.5294117647058824,0.5058823529411764,0.5019607843137255,0.5294117647058824,0.5333333333333333,0.4823529411764706
96,13.23528289794922,0,0.4023728095450224,0.7739794789003497,0.762919756083328,0.6097730379909141,0.5048956976194048,0.7283055232974797,0.7150108649689962,0.3843137254901961,0.45098039215686275,0.5019607843137255,0.5098039215686274,0.49019607843137253,0.48627450980392156,0.5764705882352941,0.5058823529411764
97,13.237191915512085,0,0.4017695493910011,0.7969032659154368,0.7588980368233935,0.6071409149763831,0.5080058556066365,0.7558617216762905,0.7101764415084355,0.6078431372549019,0.6549019607843137,0.5098039215686274,0.5058823529411764,0.5098039215686274,0.49019607843137253,0.43137254901960786,0.4823529411764706
98,13.265021920204164,0,0.393726119107609,0.7725718773652845,0.7707621051396975,0.6049591093813016,0.5099357378998065,0.7266134753338057,0.7244379865092098,0.3607843137254902,0.32941176470588235,0.49019607843137253,0.48627450980392156,0.4980392156862745,0.4980392156862745,0.5294117647058824,0.5215686274509804
99,13.295360922813414,0,0.37180775881882666,0.7574904476430435,0.7699577555221768,0.6024872966948532,0.5113895852008998,0.7084844083961027,0.7234710948864718,0.43529411764705883,0.4666666666666667,0.4666666666666667,0.4980392156862745,0.5019607843137255,0.4666666666666667,0.4,0.42745098039215684
100,13.29719090461731,0,0.37703599015032685,0.7651316989994369,0.7621154105840457,0.6000126672040113,0.5128720213339318,0.7176697946545141,0.7140439782967053,0.5294117647058824,0.4980392156862745,0.5294117647058824,0.4980392156862745,0.48627450980392156,0.42745098039215684,0.611764705882353,0.5058823529411764
101,13.32505488395691,0,0.3756283886152617,0.7786044500778285,0.7609088985124799,0.5977095905065909,0.5143482100027377,0.7338651030989763,0.7125936557139394,0.5137254901960784,0.4980392156862745,0.47843137254901963,0.5019607843137255,0.5137254901960784,0.4823529411764706,0.3803921568627451,0.5098039215686274
102,13.35490894317627,0,0.37281318554513143,0.7655338614534821,0.7645284347271771,0.595755178748095,0.5151702416427579,0.718153225614542,0.716944623462237,0.4,0.5843137254901961,0.48627450980392156,0.5058823529411764,0.5137254901960784,0.5372549019607843,0.5333333333333333,0.4392156862745098
103,13.357065916061401,0,0.36959581178447926,0.747838326361087,0.7739794789003497,0.5940567051040995,0.5153775168623737,0.6968817980312932,0.7283055232974797,0.43529411764705883,0.396078431372549,0.5254901960784314,0.49019607843137253,0.48627450980392156,0.5529411764705883,0.6078431372549019,0.5254901960784314
104,13.385003924369812,0,0.36859038505817443,0.7438165988646758,0.7763925030434812,0.5922159655116609,0.51531866594738,0.6920473646698383,0.7312061684630115,0.3607843137254902,0.403921568627451,0.4823529411764706,0.49411764705882355,0.5176470588235295,0.42745098039215684,0.27450980392156865,0.5294117647058824
105,13.415220975875854,0,0.3740197017349356,0.7627186748563054,0.7667403817615246,0.5906742279729497,0.515197285935205,0.7147691494889823,0.719603558098202,0.6352941176470588,0.5647058823529412,0.4823529411764706,0.47058823529411764,0.47843137254901963,0.43137254901960786,0.3607843137254902,0.41568627450980394
106,13.41703188419342,0,0.3716066734735657,0.7578926100970887,0.7536698054918933,0.5893775425155905,0.5141716869604387,0.7089678393561305,0.7038916954651088,0.5490196078431373,0.6039215686274509,0.5333333333333333,0.5215686274509804,0.5411764705882353,0.5647058823529412,0.5529411764705883,0.49019607843137253
107,13.445005893707275,0,0.38005227856571805,0.7247134416460236,0.7532676348013715,0.5890125955561905,0.5120248463731468,0.6690838643706803,0.7034082546041868,0.4470588235294118,0.48627450980392156,0.4823529411764706,0.48627450980392156,0.4196078431372549,0.4235294117647059,0.8705882352941177,0.6039215686274509
108,13.475315928459167,0,0.3683892997129135,0.696360346190652,0.7619143252387848,0.588347928728235,0.5095472515644984,0.635001209418976,0.7138022578662443,0.3137254901960784,0.3137254901960784,0.5254901960784314,0.5058823529411764,0.4588235294117647,0.615686274509804,0.7843137254901961,0.7019607843137254
109,13.477150917053224,0,0.3587371784309569,0.7130504545567422,0.7544741509911755,0.5876292426216444,0.5076176712486008,0.6550640348499197,0.7048585821373997,0.4823529411764706,0.5058823529411764,0.4980392156862745,0.5137254901960784,0.5019607843137255,0.5411764705882353,0.29411764705882354,0.36470588235294116
110,13.505044937133787,0,0.3563241460513486,0.733561217428698,0.7440176842099367,0.587566802632511,0.5054408705555263,0.6797195880631988,0.6922890851002993,0.615686274509804,0.5529411764705883,0.4823529411764706,0.4823529411764706,0.5137254901960784,0.5490196078431373,0.4235294117647059,0.2549019607843137
111,13.535078883171082,0,0.37321535623565333,0.7251156164547841,0.7353709937725235,0.5885580158017973,0.5022645597438444,0.6695673101820493,0.6818950818382417,0.5411764705882353,0.5019607843137255,0.4823529411764706,0.5058823529411764,0.5058823529411764,0.49019607843137253,0.3411764705882353,0.3803921568627451
112,13.53708791732788,0,0.3720088441640876,0.6873114644715247,0.7508546065400015,0.5904551360361325,0.4981515104826435,0.6241237405437611,0.7005076044882079,0.596078431372549,0.6039215686274509,0.49019607843137253,0.49411764705882355,0.5607843137254902,0.42745098039215684,0.027450980392156862,0.35294117647058826
113,13.565100908279419,0,0.3539111136717403,0.6527247027218716,0.784637026908611,0.592487680701034,0.4934428283781429,0.5825477274955311,0.741116735814594,0.24313725490196078,0.21176470588235294,0.47058823529411764,0.47058823529411764,0.4470588235294118,0.4196078431372549,1.0,0.6901960784313725
114,13.595833897590635,0,0.34265030962769605,0.6191433676985229,0.7936858921547847,0.5944533448257633,0.4884885001386397,0.542180316599606,0.7519941848880207,0.49019607843137253,0.5490196078431373,0.48627450980392156,0.4745098039215686,0.44313725490196076,0.6392156862745098,0.7686274509803922,0.8901960784313725
115,13.597708940505981,0,0.3380253384502171,0.5859641992474579,0.8051477856623283,0.5959295582468045,0.48368201205100203,0.5022963416141557,0.765772284077426,0.8274509803921568,0.7764705882352941,0.5019607843137255,0.5137254901960784,0.5764705882352941,0.47058823529411764,0.3764705882352941,0.611764705882353
116,13.625143885612488,0,0.3327971030004785,0.5708827612887402,0.8176151100144151,0.5968654105662946,0.4793911179781293,0.48416726477555855,0.7807589903695834,0.5450980392156862,0.6313725490196078,0.5254901960784314,0.5254901960784314,0.6274509803921569,0.5490196078431373,0.01568627450980392,0.42745098039215684
117,13.684732913970947,0,0.33360144438152234,0.5779207648458274,0.8145988215990239,0.5971658036956543,0.47588537966491085,0.4926274996434811,0.7771331740117745,0.5294117647058824,0.5372549019607843,0.4627450980392157,0.4980392156862745,0.49411764705882355,0.5843137254901961,0.44313725490196076,0.47843137254901963
118,13.744950890541075,0,0.32575909532515285,0.5722903587055669,0.8371204379235891,0.5973858956227835,0.4725960600470816,0.48585930778878544,0.8042059315296634,0.807843137254902,0.792156862745098,0.5254901960784314,0.5098039215686274,0.6745098039215687,0.5137254901960784,0.10196078431372549,0.3215686274509804
119,13.748047947883606,0,0.32596017655217546,0.555801319211784,0.8176151100144151,0.5953234057034407,0.4612014922211867,0.46603818298651434,0.7807589903695834,0.4980392156862745,0.47058823529411764,0.5215686274509804,0.49411764705882355,0.48627450980392156,0.49411764705882355,0.5411764705882353,0.48627450980392156
120,13.775047898292543,0,0.32193846964695616,0.5204102078446099,0.835511751043263,0.5945456459117373,0.45827393642527925,0.4234952783155462,0.8022721631355284,0.44313725490196076,0.3843137254901961,0.5098039215686274,0.49019607843137253,0.5058823529411764,0.5176470588235295,0.796078431372549,0.5098039215686274
121,13.777076959609985,0,0.3146993725081312,0.5063341982594924,0.8479790753953498,0.5934265626941425,0.4556447391249779,0.40657480560943277,0.8172588694276857,0.5843137254901961,0.592156862745098,0.5098039215686274,0.5019607843137255,0.4823529411764706,0.49411764705882355,0.43137254901960786,0.3686274509803922
122,13.804939985275269,0,0.3317916721559353,0.5163884910556186,0.8528051401545664,0.591762578815016,0.4530453732188347,0.4186608578252536,0.8230601795605375,0.4745098039215686,0.5254901960784314,0.49411764705882355,0.48627450980392156,0.5019607843137255,0.5098039215686274,0.4549019607843137,0.5019607843137255
123,13.835017919540405,0,0.33882967159478417,0.5099537435343142,0.8443595391806525,0.5899204877505221,0.4507192175370855,0.41092578424871395,0.8129079016793881,0.4627450980392157,0.38823529411764707,0.47058823529411764,0.5058823529411764,0.44313725490196076,0.403921568627451,0.4235294117647059,0.5529411764705883
124,13.837118983268738,0,0.33521013126184845,0.49909510770984894,0.8507942867019569,0.5880202091309441,0.4486658463412807,0.39787284833087033,0.8206429752559278,0.4980392156862745,0.5372549019607843,0.4745098039215686,0.49019607843137253,0.49019607843137253,0.5215686274509804,0.5058823529411764,0.5058823529411764
125,13.865169882774351,0,0.32937864389456534,0.4992961930551098,0.8495877663939142,0.5858710418335203,0.446760795490709,0.39811456876133133,0.8191926427722677,0.5333333333333333,0.5411764705882353,0.45098039215686275,0.4627450980392157,0.4588235294117647,0.4588235294117647,0.5215686274509804,0.5568627450980392
126,13.895145893096926,0,0.3512970000651094,0.4912527586534794,0.8564246804875022,0.5833334278043653,0.44470634014699173,0.38844572679065675,0.8274111522592823,0.5215686274509804,0.4470588235294118,0.47058823529411764,0.47058823529411764,0.5372549019607843,0.5568627450980392,0.48627450980392156,0.5372549019607843
127,13.89706289768219,0,0.3466720247693921,0.48401366769201193,0.8580333673678283,0.5808239471660168,0.4428928329639895,0.37974376901704965,0.8293449206534173,0.5843137254901961,0.5803921568627451,0.5294117647058824,0.5254901960784314,0.5764705882352941,0.5843137254901961,0.5215686274509804,0.4745098039215686
128,13.955530881881714,0,0.3466720247693921,0.4864266980125011,0.8429519252908722,0.578351837452743,0.44132367984929965,0.382644421608252,0.811215838864373,0.5803921568627451,0.43529411764705883,0.43137254901960786,0.4745098039215686,0.45098039215686275,0.4980392156862745,0.4980392156862745,0.5568627450980392
129,13.957328915596008,0,0.3436557363540008,0.483008238906588,0.851397526264786,0.5755045927599602,0.44044485172982756,0.37853516438952123,0.8213681167455223,0.49019607843137253,0.5450980392156862,0.48627450980392156,0.5137254901960784,0.47058823529411764,0.5176470588235295,0.5254901960784314,0.49019607843137253
130,13.985091924667358,0,0.3569274020871315,0.5095515720201447,0.8431530188726098,0.5700050717825471,0.4393871788083716,0.4104423423977026,0.811457569195728,0.4823529411764706,0.48627450980392156,0.49019607843137253,0.5019607843137255,0.5372549019607843,0.5058823529411764,0.4823529411764706,0.4823529411764706
131,14.015057921409607,0,0.3434546510087399,0.5099537435343142,0.8644681148891327,0.5677126434968152,0.43884477317217274,0.41092578424871395,0.8370799942299569,0.4666666666666667,0.4392156862745098,0.40784313725490196,0.49019607843137253,0.4823529411764706,0.4745098039215686,0.4549019607843137,0.4666666666666667
132,14.016990900039673,0,0.3605469547747824,0.5037200830055661,0.8735169801353063,0.5656287923982836,0.4378480402543823,0.4034324330828141,0.8479574433033834,0.5254901960784314,0.5411764705882353,0.5725490196078431,0.5294117647058824,0.5137254901960784,0.5254901960784314,0.49019607843137253,0.4823529411764706
133,14.045130968093872,0,0.3595415198120008,0.49286144553380545,0.8777397806222634,0.563699608118153,0.43670157116349123,0.3903794951847917,0.8530335822439581,0.4980392156862745,0.4588235294117647,0.4980392156862745,0.48627450980392156,0.5568627450980392,0.3764705882352941,0.4823529411764706,0.49019607843137253
134,14.075179934501648,0,0.35994369050252273,0.4791876070510337,0.8640659441986107,0.5622997107894356,0.4354892561758696,0.3739424638346449,0.8365965533690348,0.4980392156862745,0.4666666666666667,0.4980392156862745,0.49019607843137253,0.5019607843137255,0.6,0.5254901960784314,0.5294117647058824
135,14.077070951461792,0,0.3601447758477837,0.4888397283329902,0.8767343538959586,0.5607575227600394,0.4349147270885103,0.3855450741994544,0.8518249800916532,0.6196078431372549,0.5019607843137255,0.5333333333333333,0.49019607843137253,0.43137254901960786,0.4627450980392157,0.5137254901960784,0.5019607843137255
136,14.105094909667967,0,0.3589382637762179,0.4705409150486897,0.8616529118190025,0.5595256040019453,0.4345848936503125,0.3635484586914175,0.8336958983026089,0.5568627450980392,0.4627450980392157,0.38823529411764707,0.42745098039215684,0.48627450980392156,0.5176470588235295,0.5058823529411764,0.5254901960784314
137,14.135111927986145,0,0.3621556375368701,0.4998994507381881,0.8646692084708706,0.5582575964845726,0.4351291656050639,0.39883973203289314,0.8373217245613119,0.4549019607843137,0.592156862745098,0.5098039215686274,0.5372549019607843,0.5529411764705883,0.5764705882352941,0.5411764705882353,0.49411764705882355
138,14.13717794418335,0,0.35853609308569595,0.5274482114016973,0.8642670213073949,0.5577328490931401,0.435699066024395,0.4319555131834688,0.8368382638986016,0.44313725490196076,0.47058823529411764,0.44313725490196076,0.45098039215686275,0.5254901960784314,0.5490196078431373,0.5137254901960784,0.5098039215686274
139,14.165238976478575,0,0.3565252313966096,0.5204102078446099,0.8841745446165213,0.5574978216671435,0.43606417634854894,0.4234952783155462,0.8607686756222862,0.45098039215686275,0.4627450980392157,0.4549019607843137,0.4627450980392157,0.48627450980392156,0.4823529411764706,0.4745098039215686,0.47843137254901963
140,14.195065975189207,0,0.34506333788906596,0.4777800059277924,0.905489640633044,0.5575839990500686,0.4364250441395476,0.3722504163660157,0.8863911006565148,0.4980392156862745,0.49019607843137253,0.47843137254901963,0.5019607843137255,0.5058823529411764,0.5019607843137255,0.49411764705882355,0.5019607843137255
141,14.197089910507202,0,0.335612297834132,0.4405791219232075,0.9262014559043535,0.5573453429463557,0.4376650172750554,0.32753202237540696,0.9112883346966781,0.4666666666666667,0.5882352941176471,0.6274509803921569,0.5254901960784314,0.4627450980392157,0.5215686274509804,0.4745098039215686,0.4823529411764706
142,14.225125908851625,0,0.3617534668463482,0.4816006373715228,0.8837723574530458,0.5565317617195163,0.44086867930690393,0.3768431164258473,0.8602852149595759,0.5019607843137255,0.6431372549019608,0.5254901960784314,0.49019607843137253,0.40784313725490196,0.403921568627451,0.4666666666666667,0.49411764705882355
143,14.25512397289276,0,0.3798511932204571,0.5477578848101535,0.855017087188914,0.5550467860071276,0.4456105046546653,0.45636934101583976,0.8257191141965025,0.4627450980392157,0.6941176470588235,0.4549019607843137,0.5529411764705883,0.5450980392156862,0.4627450980392157,0.47058823529411764,0.4823529411764706
144,14.257126927375793,0,0.34727528080517495,0.6008445518609146,0.8505931931202192,0.5535715379232686,0.450568090288353,0.5201836980222919,0.8204012449245727,0.5215686274509804,0.5215686274509804,0.40784313725490196,0.32941176470588235,0.4745098039215686,0.49019607843137253,0.5137254901960784,0.5411764705882353
145,14.28504991531372,0,0.34566659804308725,0.6191433676985229,0.8443595391806525,0.5524525042101448,0.45443510727967845,0.542180316599606,0.8129079016793881,0.5058823529411764,0.47843137254901963,0.5176470588235295,0.5568627450980392,0.5176470588235295,0.5372549019607843,0.5098039215686274,0.5019607843137255
146,14.31525194644928,0,0.36295997891791393,0.6308063506695658,0.8409410718382626,0.5512421842527001,0.4574255189022748,0.5562001411699194,0.8087986345597631,0.6039215686274509,0.45098039215686275,0.5294117647058824,0.5098039215686274,0.5098039215686274,0.47058823529411764,0.49019607843137253,0.5098039215686274
147,14.317591905593872,0,0.3714055881283047,0.6515181906503056,0.8441584455989148,0.5502424860171032,0.460234120405081,0.5810974049127652,0.812666171348033,0.5254901960784314,0.45098039215686275,0.43529411764705883,0.4588235294117647,0.5058823529411764,0.5176470588235295,0.49411764705882355,0.4823529411764706
148,14.345128893852234,0,0.36497084060700036,0.6561431618277846,0.8493866728121765,0.5498860934302731,0.4630171627495668,0.5866569847142619,0.8189509124409126,0.4666666666666667,0.43137254901960786,0.49019607843137253,0.4980392156862745,0.49019607843137253,0.49019607843137253,0.49019607843137253,0.4745098039215686
149,14.375179886817932,0,0.36476975526173944,0.6320128627411317,0.8465714738602848,0.5497362087437598,0.4648307342883812,0.5576504637526853,0.8155668214640118,0.5490196078431373,0.4823529411764706,0.5372549019607843,0.5803921568627451,0.5058823529411764,0.49411764705882355,0.5137254901960784,0.5372549019607843
150,14.37719190120697,0,0.3687914704034354,0.6175346766999584,0.8332998040089157,0.5488490737740723,0.4665771282601979,0.540246543255024,0.7996132284995635,0.4196078431372549,0.5098039215686274,0.5098039215686274,0.5764705882352941,0.48627450980392156,0.48627450980392156,0.4980392156862745,0.5058823529411764
151,14.404892921447756,0,0.378443591685392,0.6366378339186106,0.8075608139236982,0.5474388993171981,0.4685769207671587,0.563210043554182,0.7686729341934049,0.4549019607843137,0.5333333333333333,0.5058823529411764,0.48627450980392156,0.5019607843137255,0.5058823529411764,0.5098039215686274,0.5137254901960784
152,14.435154914855955,0,0.3601447758477837,0.6788658634976108,0.8164086020610878,0.5458377019585012,0.47147771939655014,0.6139714626626117,0.7793086727372646,0.5568627450980392,0.5686274509803921,0.4980392156862745,0.5098039215686274,0.5098039215686274,0.49019607843137253,0.45098039215686275,0.45098039215686275
153,14.437089920043945,0,0.3474763661504359,0.7154634951728275,0.8105770941026126,0.5447442026514624,0.473861211156484,0.6579646998172398,0.7722987406503194,0.5450980392156862,0.47058823529411764,0.4980392156862745,0.5764705882352941,0.5176470588235295,0.5254901960784314,0.5568627450980392,0.5529411764705883
154,14.465040922164915,0,0.36235672288213105,0.6989744515608062,0.8083651594229804,0.54414279263641,0.4747996426589075,0.6381435700645217,0.7696398208656958,0.26666666666666666,0.30196078431372547,0.4588235294117647,0.5294117647058824,0.4823529411764706,0.48627450980392156,0.4745098039215686,0.3215686274509804
155,14.495105981826782,0,0.37281318554513143,0.6891212449335887,0.7858435430984151,0.5432656526193952,0.4750710014160902,0.6262992392692512,0.7425670633478071,0.49019607843137253,0.43529411764705883,0.4588235294117647,0.4745098039215686,0.5058823529411764,0.4980392156862745,0.5058823529411764,0.5490196078431373
156,14.497200965881348,0,0.37180775881882666,0.682083237258263,0.7751859827354386,0.542453244648516,0.4756472235563539,0.6178389994508815,0.7297558359793515,0.5411764705882353,0.5450980392156862,0.615686274509804,0.5215686274509804,0.6196078431372549,0.5058823529411764,0.4588235294117647,0.5176470588235295
157,14.525130987167358,0,0.3633621496084359,0.678463692807089,0.7657349550352198,0.5416364555319629,0.47664370895179,0.6134880218016897,0.7183949559458971,0.42745098039215684,0.4117647058823529,0.5254901960784314,0.4823529411764706,0.41568627450980394,0.4392156862745098,0.30980392156862746,0.4
158,14.555142998695375,0,0.3514980854103703,0.7200884663503063,0.7657349550352198,0.5407276425544728,0.478575927855986,0.6635242796187365,0.7183949559458971,0.4745098039215686,0.49019607843137253,0.5333333333333333,0.5019607843137255,0.5372549019607843,0.5254901960784314,0.596078431372549,0.4823529411764706
159,14.557138919830322,0,0.35089483349282585,0.7214960678853715,0.776593596625219,0.5403661658584822,0.48041976147785537,0.6652163275824104,0.7314478987943666,0.5607843137254902,0.5490196078431373,0.45098039215686275,0.48627450980392156,0.4627450980392157,0.5098039215686274,0.5098039215686274,0.5176470588235295
160,14.615009903907776,0,0.3531067722906964,0.6941483991563049,0.795897839189132,0.5401529352510184,0.4818991283336923,0.6323422747830112,0.7546531195239855,0.4196078431372549,0.4745098039215686,0.49411764705882355,0.4196078431372549,0.49411764705882355,0.5058823529411764,0.596078431372549,0.5764705882352941
161,14.616778969764711,0,0.3559219753608267,0.6977679353710021,0.7884576649415228,0.5396420095078583,0.4828980642004374,0.6366932425313088,0.7457094437951409,0.5490196078431373,0.5058823529411764,0.49411764705882355,0.5764705882352941,0.4549019607843137,0.5215686274509804,0.5411764705882353,0.5254901960784314
162,14.619027972221375,0,0.3537100283264793,0.713653718829002,0.7780011940420457,0.5391286728969661,0.4835630181543241,0.6557892060421968,0.7331399418075933,0.5803921568627451,0.6196078431372549,0.48627450980392156,0.5215686274509804,0.5254901960784314,0.49411764705882355,0.3764705882352941,0.5450980392156862
163,14.64497697353363,0,0.3504926545658271,0.7090287476515231,0.7677458084878294,0.5389126997418148,0.48422466025910826,0.6502296262407001,0.7208121602505068,0.34509803921568627,0.4666666666666667,0.37254901960784315,0.4,0.42745098039215684,0.4823529411764706,0.5176470588235295,0.41568627450980394
164,14.675182938575745,0,0.35471545917102254,0.6806756398414363,0.7773979297697858,0.5388535369486545,0.4845881121834874,0.6161469564376546,0.7324147706153162,0.7019607843137254,0.6,0.5176470588235295,0.5372549019607843,0.5058823529411764,0.5254901960784314,0.41568627450980394,0.5803921568627451
165,14.676849961280825,0,0.34787854095919624,0.6764528352362409,0.7977075990600039,0.5386132174947196,0.48522360107630047,0.6110708125466329,0.7568285934972402,0.5333333333333333,0.5372549019607843,0.49019607843137253,0.4745098039215686,0.5372549019607843,0.4745098039215686,0.47058823529411764,0.5137254901960784
166,14.705163955688475,0,0.34868288645847845,0.6798712902239156,0.7956967456073943,0.5381023462064776,0.48558812724769784,0.6151800648149166,0.7544113891926304,0.4,0.403921568627451,0.4980392156862745,0.45098039215686275,0.5019607843137255,0.49019607843137253,0.5254901960784314,0.4745098039215686
167,14.735037922859194,0,0.3464709394241311,0.6961592526089144,0.7918761199291976,0.5375503020497965,0.4857334327706538,0.6347594790876209,0.7498186960634248,0.6078431372549019,0.5411764705882353,0.5176470588235295,0.49411764705882355,0.47843137254901963,0.5176470588235295,0.5176470588235295,0.5882352941176471
168,14.737145900726318,0,0.35451437382576156,0.6905288382321769,0.7828272505647855,0.5372563841052292,0.4857996747031515,0.6279912773320309,0.738941242039551,0.5686274509803921,0.5137254901960784,0.6823529411764706,0.6509803921568628,0.5568627450980392,0.592156862745098,0.8156862745098039,0.5607843137254902
169,14.76508092880249,0,0.3480796263044572,0.6953549071096321,0.7892619980860899,0.5371684938676115,0.48586207013826105,0.6337925924153299,0.7466763156160907,0.5647058823529412,0.47843137254901963,0.43529411764705883,0.47843137254901963,0.47843137254901963,0.4,0.34509803921568627,0.40784313725490196
170,14.795206904411314,0,0.3500904838753052,0.7060124674726086,0.7874522382152181,0.537345333738524,0.48579848164540307,0.6466038197837854,0.7445008416428361,0.5686274509803921,0.5411764705882353,0.5490196078431373,0.5294117647058824,0.5137254901960784,0.5098039215686274,0.4823529411764706,0.4117647058823529
171,14.797046899795532,0,0.34988939853004425,0.7021918253214583,0.7896641852495654,0.5380695346431718,0.4853748075321864,0.6420111068527915,0.747159776278801,0.4196078431372549,0.5019607843137255,0.4235294117647059,0.47058823529411764,0.5568627450980392,0.47843137254901963,0.4745098039215686,0.49019607843137253
172,14.82509994506836,0,0.3549165403980451,0.685501704600653,0.7814196531479588,0.5392170383775043,0.4844376680964531,0.6219482665705064,0.7372491990263242,0.3803921568627451,0.4588235294117647,0.49019607843137253,0.49019607843137253,0.47843137254901963,0.48627450980392156,0.38823529411764707,0.47058823529411764
173,14.855097889900208,0,0.3523024309096526,0.6661974620367399,0.7794087955771107,0.5405149564961889,0.4831979771364294,0.5987430458408876,0.7348319897712674,0.3215686274509804,0.38823529411764707,0.47843137254901963,0.48627450980392156,0.49019607843137253,0.4980392156862745,0.4823529411764706,0.5254901960784314
174,14.85705292224884,0,0.3496883131847833,0.6587572795526538,0.7814196531479588,0.5419318932637864,0.48192687063917894,0.5897993602111489,0.7372491990263242,0.6274509803921569,0.5294117647058824,0.5647058823529412,0.5490196078431373,0.4823529411764706,0.47843137254901963,0.2980392156862745,0.45098039215686275
175,14.885121941566467,0,0.3476774597321736,0.6450834431290012,0.7900663477036105,0.5435340510092186,0.4806584126311212,0.5733623313362256,0.7476432072388288,0.5529411764705883,0.4588235294117647,0.5176470588235295,0.5333333333333333,0.47843137254901963,0.5450980392156862,0.6470588235294118,0.5294117647058824
176,14.915212988853455,0,0.34003619190282675,0.6273878833271759,0.8053488668893508,0.5450454571586155,0.47905751229924964,0.5520908740502944,0.7660139995574399,0.4117647058823529,0.5098039215686274,0.5607843137254902,0.49019607843137253,0.5450980392156862,0.5176470588235295,0.5764705882352941,0.4196078431372549
177,14.917113900184633,0,0.33460687110782716,0.6100945024523493,0.8121858015741308,0.5462605542975012,0.4773393853803109,0.5313028675261794,0.7742325337966899,0.4980392156862745,0.47058823529411764,0.4980392156862745,0.49411764705882355,0.5215686274509804,0.4588235294117647,0.5372549019607843,0.596078431372549
178,14.945055961608887,0,0.328976469085805,0.5956163205294144,0.8240498575357195,0.5469508545404835,0.4757049012153877,0.5138989519789652,0.788494063946123,0.5568627450980392,0.5686274509803921,0.5647058823529412,0.5372549019607843,0.5450980392156862,0.6627450980392157,0.7686274509803922,0.4588235294117647
179,14.975092887878418,0,0.3193243478038485,0.5819424799875235,0.8409410718382626,0.5471648821699286,0.4744676359744376,0.4974619181535949,0.8087986345597631,0.6470588235294118,0.5647058823529412,0.4,0.4470588235294118,0.4627450980392157,0.5058823529411764,0.403921568627451,0.5529411764705883
180,14.977055907249449,0,0.32636235547917414,0.6018499868236962,0.8409410718382626,0.5469773938873275,0.47313444592024423,0.521392310075491,0.8087986345597631,0.48627450980392156,0.5333333333333333,0.4588235294117647,0.4823529411764706,0.5137254901960784,0.45098039215686275,0.396078431372549,0.5098039215686274
181,15.005042910575867,0,0.33601447676113066,0.6175346766999584,0.833701978817676,0.546885464084885,0.4717136280021286,0.540246543255024,0.8000966743109325,0.6588235294117647,0.6235294117647059,0.5372549019607843,0.5254901960784314,0.5372549019607843,0.5058823529411764,0.5647058823529412,0.5411764705882353
182,15.035114884376526,0,0.33420470041730527,0.5994369462076111,0.8377236980776105,0.5471001303220048,0.4700537282418506,0.5184916451081708,0.8049310977714933,0.47058823529411764,0.47058823529411764,0.4588235294117647,0.49019607843137253,0.4627450980392157,0.5294117647058824,0.5333333333333333,0.5647058823529412
183,15.037067890167235,0,0.32797103824126184,0.5779207648458274,0.8481801525041339,0.5472259706870066,0.46800201049537354,0.4926274996434811,0.8175005799572524,0.3686274509803922,0.40784313725490196,0.5254901960784314,0.4392156862745098,0.49019607843137253,0.5411764705882353,0.4588235294117647,0.44313725490196076
184,15.064788937568665,0,0.32354715240904386,0.5580132662461313,0.8540116604626091,0.5472793513579672,0.46579235368496946,0.46869711762247923,0.8245105120441976,0.49019607843137253,0.5411764705882353,0.5058823529411764,0.4666666666666667,0.4666666666666667,0.3333333333333333,0.13725490196078433,0.4549019607843137
185,15.067112922668455,0,0.3267645261696961,0.5584154369366533,0.8501910183114588,0.5470436655225077,0.4636504783961078,0.4691805584834012,0.8199177991132036,0.6666666666666666,0.5450980392156862,0.5137254901960784,0.5607843137254902,0.5137254901960784,0.615686274509804,0.6274509803921569,0.592156862745098
186,15.09574294090271,0,0.3319927575011963,0.5692740702901756,0.8431530188726098,0.5469231171854438,0.4614449601594701,0.48223349143097655,0.811457569195728,0.5450980392156862,0.5176470588235295,0.5137254901960784,0.5058823529411764,0.4666666666666667,0.4588235294117647,0.5215686274509804,0.4745098039215686
187,15.124745965003967,0,0.32937864389456534,0.575306647120958,0.8244520282262413,0.5470066510296233,0.4594168065411366,0.4894851241465943,0.788977504807045,0.5215686274509804,0.5058823529411764,0.5294117647058824,0.5019607843137255,0.5372549019607843,0.5647058823529412,0.5058823529411764,0.5764705882352941
188,15.127188920974731,0,0.31791674626878336,0.5487633156546967,0.8345063243169583,0.54747142870502,0.4571264970467588,0.4575779481185917,0.8010635609832235,0.611764705882353,0.5529411764705883,0.5607843137254902,0.4196078431372549,0.5803921568627451,0.6235294117647059,0.5882352941176471,0.5450980392156862
189,15.15566897392273,0,0.3183189169593053,0.5101548305268705,0.8469736445508066,0.5478607863190157,0.45443558747304613,0.41116750665935375,0.8160502623249338,0.43137254901960786,0.3254901960784314,0.3607843137254902,0.33725490196078434,0.5294117647058824,0.1568627450980392,0.33725490196078434,0.4588235294117647
190,15.184736967086792,0,0.327166696860218,0.5013070506259578,0.8610496475467426,0.5477652426901982,0.45186492425912483,0.40053177801638823,0.8329707271103318,0.44313725490196076,0.4196078431372549,0.47843137254901963,0.5843137254901961,0.4666666666666667,0.6274509803921569,0.5098039215686274,0.5686274509803921
191,15.187165975570679,0,0.32797103824126184,0.4966820769775359,0.8777397806222634,0.5471581099583108,0.44959749573119234,0.3949721952446233,0.8530335822439581,0.5019607843137255,0.40784313725490196,0.48627450980392156,0.592156862745098,0.6235294117647059,0.6666666666666666,0.6,0.4470588235294118
192,15.215832948684692,0,0.3370199034874355,0.501709223375599,0.8652724480336997,0.546347890085045,0.4475455354128079,0.4010152213525337,0.8380468660509065,0.48627450980392156,0.5254901960784314,0.4823529411764706,0.5215686274509804,0.39215686274509803,0.4117647058823529,0.44313725490196076,0.4470588235294118
193,15.244646906852722,0,0.3297808145850873,0.4862256126672402,0.8584355380583504,0.5455582838734577,0.445761027948853,0.382402701177791,0.8298283615143391,0.5882352941176471,0.6666666666666666,0.4666666666666667,0.48627450980392156,0.4745098039215686,0.7372549019607844,0.6078431372549019,0.49411764705882355
194,15.247094988822935,0,0.33521013126184845,0.4775789201707076,0.8590387940941331,0.5442936030565287,0.444342912974848,0.37200869544051,0.8305535228057221,0.5215686274509804,0.5607843137254902,0.5490196078431373,0.4980392156862745,0.6549019607843137,0.6588235294117647,0.5843137254901961,0.5254901960784314
195,15.275689959526062,0,0.3295797292398263,0.4836114957660185,0.8610496475467426,0.5430505061889079,0.44316260757810383,0.3792603266709935,0.8329707271103318,0.48627450980392156,0.47058823529411764,0.4745098039215686,0.4588235294117647,0.5176470588235295,0.38823529411764707,0.5686274509803921,0.5764705882352941
196,15.30471396446228,0,0.344862252543805,0.48180172271678373,0.8580333673678283,0.5417899540448511,0.4420786725348408,0.3770848368563083,0.8293449206534173,0.47843137254901963,0.47058823529411764,0.5647058823529412,0.47843137254901963,0.396078431372549,0.3843137254901961,0.4392156862745098,0.4588235294117647
197,15.307118892669678,0,0.335612297834132,0.4862256126672402,0.8632615945810902,0.5406342028656683,0.44162206309714114,0.382402701177791,0.8356296617462969,0.3607843137254902,0.5215686274509804,0.7725490196078432,0.6,0.4,0.47843137254901963,0.4235294117647059,0.44313725490196076
198,15.33569598197937,0,0.33581339141586974,0.5031168244988403,0.8469736445508066,0.5394900456335678,0.44144255988569453,0.4027072688211629,0.8160502623249338,0.3686274509803922,0.39215686274509803,0.43137254901960786,0.47058823529411764,0.4980392156862745,0.40784313725490196,0.47058823529411764,0.5294117647058824
199,15.365004897117615,0,0.3392318505217829,0.4892419002589837,0.8413432425287845,0.5385193223647828,0.4413199670139829,0.3860285165455105,0.8092820754206851,0.5294117647058824,0.5882352941176471,0.49019607843137253,0.5529411764705883,0.5725490196078431,0.5490196078431373,0.5137254901960784,0.4392156862745098
200,15.367259979248047,0,0.3392318505217829,0.4767745767305445,0.8717071955550042,0.5374607336106154,0.441047543910676,0.37104181124344254,0.8457819396274462,0.47058823529411764,0.396078431372549,0.4,0.47058823529411764,0.33725490196078434,0.4470588235294118,0.42745098039215684,0.5098039215686274
201,15.3956139087677,0,0.3464709394241311,0.49044841521331634,0.8676854886497849,0.5362604333580788,0.44065851302618814,0.3874788425935893,0.8409475310182267,0.5294117647058824,0.47843137254901963,0.5254901960784314,0.5098039215686274,0.4627450980392157,0.4196078431372549,0.44313725490196076,0.5568627450980392
202,15.42485499382019,0,0.35029156922056615,0.4568670764835532,0.8272672312963717,0.5353206256313644,0.4401132163288893,0.3471114272422618,0.7923616007343929,0.47843137254901963,0.5568627450980392,0.5137254901960784,0.5019607843137255,0.4823529411764706,0.6196078431372549,0.5294117647058824,0.4588235294117647
203,15.427251935005188,0,0.34043836259334864,0.4355519755251444,0.8236476827269591,0.5340448459120621,0.44011013220035283,0.32148899626749655,0.788010618134754,0.47058823529411764,0.5137254901960784,0.43137254901960786,0.5019607843137255,0.47058823529411764,0.4666666666666667,0.4823529411764706,0.49019607843137253
204,15.455701947212221,0,0.3350090459165875,0.49044841521331634,0.849788847620937,0.5322406554704814,0.4408392885025366,0.3874788425935893,0.8194343582522816,0.5882352941176471,0.5411764705882353,0.5372549019607843,0.5215686274509804,0.5803921568627451,0.49019607843137253,0.5176470588235295,0.5490196078431373
205,15.48468291759491,0,0.34305248031821794,0.5175950064217751,0.8606474850926976,0.5309704252023657,0.4408991592096308,0.4201111843683772,0.832487296150304,0.5215686274509804,0.47843137254901963,0.615686274509804,0.4980392156862745,0.24313725490196078,0.36470588235294116,0.4549019607843137,0.47843137254901963
206,15.487214922904966,0,0.34988939853004425,0.4713452584888528,0.8564246804875022,0.5302413976118063,0.4403836939064902,0.36451534288848497,0.8274111522592823,0.7568627450980392,0.5098039215686274,0.30980392156862746,0.4470588235294118,0.5490196078431373,0.4980392156862745,0.5490196078431373,0.5607843137254902
207,15.51593291759491,0,0.35411220725347803,0.46933439992962755,0.8678865822315228,0.52918520487403,0.4405051729276068,0.3620981324453208,0.8411892613495818,0.6039215686274509,0.5098039215686274,0.3568627450980392,0.4588235294117647,0.6274509803921569,0.49019607843137253,0.5098039215686274,0.5215686274509804
208,15.544748902320864,0,0.3476774597321736,0.5145787184182077,0.8986527059482643,0.5280973342253312,0.44107918716846883,0.416485368505613,0.8781725664172649,0.48627450980392156,0.4588235294117647,0.40784313725490196,0.47058823529411764,0.3686274509803922,0.38823529411764707,0.4627450980392157,0.5176470588235295
209,15.547155976295473,0,0.34787854095919624,0.4994972784003707,0.8847777841793506,0.5273145893334092,0.4411107611200024,0.39835628919179233,0.8614938171118808,0.4235294117647059,0.49019607843137253,0.5686274509803921,0.5019607843137255,0.3254901960784314,0.5137254901960784,0.5098039215686274,0.49411764705882355
210,15.575623989105225,0,0.3591393491214789,0.47335611721280757,0.8324954708643487,0.5267693569919226,0.44129139303338527,0.366932553529667,0.7986463566786136,0.45098039215686275,0.4980392156862745,0.4745098039215686,0.5568627450980392,0.807843137254902,0.5686274509803921,0.49411764705882355,0.47843137254901963
211,15.605077981948853,0,0.36476975526173944,0.4727528595297293,0.8507942867019569,0.5258963357468859,0.4429850201896806,0.3662073902581052,0.8206429752559278,0.48627450980392156,0.4470588235294118,0.3607843137254902,0.4549019607843137,0.5529411764705883,0.5058823529411764,0.5176470588235295,0.5098039215686274
212,15.607134938240053,0,0.31590588869793534,0.5431329095144363,0.9050874534695686,0.5251396005039692,0.4459454469542589,0.45080975626389597,0.8859076399938045,0.4117647058823529,0.44313725490196076,0.6039215686274509,0.5411764705882353,0.47843137254901963,0.4980392156862745,0.4745098039215686,0.4549019607843137
213,15.635685920715332,0,0.311481998747479,0.5312688453163708,0.9207721351093539,0.5250149333949274,0.4484815015925811,0.43654821621356865,0.9047618632724433,0.45098039215686275,0.47058823529411764,0.5882352941176471,0.4823529411764706,0.5019607843137255,0.49411764705882355,0.48627450980392156,0.43529411764705883
214,15.664716958999634,0,0.34204704535543634,0.4564649049693836,0.8503920995384815,0.5249564042589944,0.4505371202913643,0.34662798539125045,0.8201595145932176,0.396078431372549,0.5450980392156862,0.7176470588235294,0.49411764705882355,0.3764705882352941,0.5019607843137255,0.47843137254901963,0.4823529411764706
215,15.66714894771576,0,0.38648702608702246,0.4836114957660185,0.8123868786829148,0.5227749105420795,0.4543105144273429,0.3792603266709935,0.7744742443262567,0.5647058823529412,0.7647058823529411,0.4627450980392157,0.5137254901960784,0.5725490196078431,0.5058823529411764,0.5215686274509804,0.5215686274509804
216,15.695913910865785,0,0.33882967159478417,0.6183390221992406,0.8310878569745684,0.5201776337246079,0.459719466975263,0.541213429927315,0.7969542938635986,0.49019607843137253,0.6,0.4392156862745098,0.5137254901960784,0.5411764705882353,0.4588235294117647,0.5019607843137255,0.5294117647058824
217,15.724805951118471,0,0.30082445073921765,0.6913331878496977,0.851397526264786,0.5197276974895841,0.46358896414058004,0.6289581689547691,0.8213681167455223,0.5019607843137255,0.4470588235294118,0.5294117647058824,0.5450980392156862,0.5333333333333333,0.5058823529411764,0.5019607843137255,0.5098039215686274
218,15.7272629737854,0,0.3350090459165875,0.6513171053050447,0.8666800619234801,0.5195743227378732,0.4653399026228246,0.5808556844823043,0.8397389288659217,0.5725490196078431,0.4392156862745098,0.49019607843137253,0.6549019607843137,0.5254901960784314,0.5411764705882353,0.5176470588235295,0.5058823529411764
219,15.755717992782593,0,0.33259601765521757,0.5803337972254358,0.8707017688286992,0.5190011946270401,0.46609587549688936,0.495528154709907,0.8445733374751413,0.47843137254901963,0.43529411764705883,0.5764705882352941,0.5725490196078431,0.49411764705882355,0.5254901960784314,0.47843137254901963,0.4392156862745098
220,15.784750938415527,0,0.3539111136717403,0.5463502832750884,0.784637026908611,0.5177642165120212,0.46700353006976064,0.4546772930521658,0.741116735814594,0.3215686274509804,0.48627450980392156,0.6235294117647059,0.6392156862745098,0.5254901960784314,0.4980392156862745,0.49019607843137253,0.4470588235294118
221,15.787181973457336,0,0.3832696523263702,0.6434747521304369,0.7876533153240022,0.5152858246813916,0.46923886484921523,0.5714285579916436,0.7447425521724029,0.4392156862745098,0.48627450980392156,0.42745098039215684,0.4588235294117647,0.5294117647058824,0.47843137254901963,0.5058823529411764,0.5137254901960784
222,15.815646886825562,0,0.32354715240904386,0.741202485258045,0.8455660430157416,0.5138642047908476,0.47292391825689095,0.6889049941233985,0.8143582143612598,0.4823529411764706,0.4745098039215686,0.47843137254901963,0.4549019607843137,0.4823529411764706,0.4823529411764706,0.48627450980392156,0.5098039215686274
223,15.84464991092682,0,0.31329177509130446,0.7458274564355238,0.9143373875880494,0.5134468622994578,0.4754057308464591,0.6944645739248951,0.8970267896959038,0.7215686274509804,0.38823529411764707,0.4196078431372549,0.33725490196078434,0.4549019607843137,0.47843137254901963,0.4823529411764706,0.5019607843137255
224,15.847514986991882,0,0.326965611514957,0.5990347796353276,0.852000790537046,0.512354318428707,0.4750697539034238,0.5180082091976961,0.8220932879377995,0.4588235294117647,0.5215686274509804,0.5019607843137255,0.3764705882352941,0.5098039215686274,0.5215686274509804,0.5176470588235295,0.5568627450980392
225,15.87563693523407,0,0.38528050989721824,0.5626382374236103,0.7271264699073936,0.5090939143723247,0.4735309074258127,0.4742566974239759,0.6719845144866592,0.5529411764705883,0.5372549019607843,0.5450980392156862,0.5098039215686274,0.803921568627451,0.5372549019607843,0.5333333333333333,0.5411764705882353
226,15.904670000076294,0,0.4027749802355443,0.7601045530131977,0.6824854120670234,0.5048636583258448,0.4735005611851572,0.7116267690416485,0.6183224452622506,0.4666666666666667,0.4980392156862745,0.4549019607843137,0.4745098039215686,0.27450980392156865,0.49411764705882355,0.49019607843137253,0.4470588235294118
227,15.907144904136658,0,0.33782424486847934,0.8449627787434817,0.727528644716154,0.5044683354231068,0.47645959192365644,0.8136330431689827,0.6724679602980281,0.47843137254901963,0.3686274509803922,0.4823529411764706,0.4823529411764706,0.32941176470588235,0.47058823529411764,0.49411764705882355,0.4823529411764706
228,15.9356929063797,0,0.33259601765521757,0.6977679353710021,0.7920772052744586,0.5064632566901319,0.4776385755510279,0.6366932425313088,0.7500604164938858,0.27058823529411763,0.6039215686274509,0.4549019607843137,0.5764705882352941,0.5607843137254902,0.4666666666666667,0.3607843137254902,0.5254901960784314
229,15.964783906936646,0,0.3422481389371741,0.5982304341360453,0.8393323808396982,0.5061602645760506,0.4774566119673781,0.517041322525405,0.8068648612151812,0.6078431372549019,0.32941176470588235,0.47058823529411764,0.3607843137254902,0.5490196078431373,0.5215686274509804,0.615686274509804,0.5490196078431373
230,15.967435956001284,0,0.37321535623565333,0.693545134884045,0.7745827431726094,0.503834806907341,0.47754809622958255,0.631617103590734,0.7290306944897569,0.5372549019607843,0.42745098039215684,0.5882352941176471,0.43529411764705883,0.5019607843137255,0.5333333333333333,0.5372549019607843,0.4470588235294118
231,15.995689988136293,0,0.3639654097624571,0.7818218238384806,0.7196862956597845,0.5033197326895203,0.47857422490218743,0.7377326398872462,0.6630408387578146,0.596078431372549,0.7098039215686275,0.48627450980392156,0.49019607843137253,0.5215686274509804,0.49411764705882355,0.4549019607843137,0.403921568627451
232,16.024784922599792,0,0.3464709394241311,0.7440176842099367,0.7399959649500023,0.5041070319927643,0.47933100964957476,0.6922890851002993,0.6874546616397385,0.5843137254901961,0.6,0.43529411764705883,0.5450980392156862,0.5098039215686274,0.5568627450980392,0.49411764705882355,0.6509803921568628
233,16.02732694149017,0,0.3565252313966096,0.6665996286090234,0.7852402911808707,0.5046516306770235,0.47945247876979724,0.5992264817513625,0.7418419070068711,0.3686274509803922,0.4196078431372549,0.48627450980392156,0.4980392156862745,0.5450980392156862,0.47058823529411764,0.5686274509803921,0.49019607843137253
234,16.05580997467041,0,0.3390307651765219,0.6657952831097411,0.8011260664023938,0.5042901391296917,0.47981596039685886,0.5982595950790713,0.7609378606168652,0.6,0.592156862745098,0.47058823529411764,0.5529411764705883,0.5254901960784314,0.4745098039215686,0.4392156862745098,0.4627450980392157
235,16.084792971611027,0,0.34707419545991397,0.7198873892415223,0.764729528308915,0.5038643115719913,0.4805085477463963,0.6632825690891698,0.7171863537935922,0.5764705882352941,0.49019607843137253,0.49019607843137253,0.5137254901960784,0.45098039215686275,0.4980392156862745,0.5647058823529412,0.5372549019607843
236,16.087198972702026,0,0.35411220725347803,0.7355720708813075,0.7508546065400015,0.5040433444909644,0.4805973043122547,0.6821367923678086,0.7005076044882079,0.43529411764705883,0.5529411764705883,0.4745098039215686,0.49019607843137253,0.49019607843137253,0.5333333333333333,0.5058823529411764,0.4392156862745098
237,16.115716934204098,0,0.3464709394241311,0.6774582660807841,0.7767946902069567,0.5045958787419074,0.48051388927880534,0.6122794196493848,0.7316896291257218,0.5254901960784314,0.5098039215686274,0.5019607843137255,0.5764705882352941,0.4196078431372549,0.5019607843137255,0.7372549019607844,0.6901960784313725
238,16.144726991653442,0,0.3348079646895649,0.654534479065697,0.8075608139236982,0.5046801205000208,0.4808409207639508,0.5847232212705742,0.7686729341934049,0.788235294117647,0.5215686274509804,0.5254901960784314,0.5294117647058824,0.48627450980392156,0.5058823529411764,0.5686274509803921,0.16862745098039217
239,16.20560896396637,0,0.33581339141586974,0.6879147287437846,0.8017293265564152,0.5042271446904844,0.48132455469230917,0.6248489117360382,0.7616630268586952,0.5294117647058824,0.5098039215686274,0.5647058823529412,0.5882352941176471,0.45098039215686275,0.5019607843137255,0.38823529411764707,0.5411764705882353
240,16.207616925239567,0,0.34003619190282675,0.7235069254562195,0.7882565713597851,0.5039893103609882,0.4817508277902476,0.6676335368374674,0.7454677134637859,0.28627450980392155,0.29411764705882354,0.5176470588235295,0.45098039215686275,0.49019607843137253,0.49411764705882355,0.4392156862745098,0.4549019607843137
241,16.234820961952213,0,0.35411220725347803,0.711441775912893,0.780414226421654,0.5044692067017944,0.4818989154644675,0.653130276356679,0.7360405968740192,0.49411764705882355,0.47843137254901963,0.4666666666666667,0.5058823529411764,0.3843137254901961,0.49019607843137253,0.49411764705882355,0.43529411764705883
242,16.235734939575195,0,0.3408405332838706,0.6969635857534813,0.7985119527957629,0.5054698752250206,0.4816904125339736,0.6357263509085705,0.7577954900704255,0.5254901960784314,0.6196078431372549,0.5568627450980392,0.5529411764705883,0.615686274509804,0.5294117647058824,0.45098039215686275,0.5176470588235295
243,16.264514923095707,0,0.3504926545658271,0.7202895516955674,0.780414226421654,0.5063698516544569,0.4813526831326688,0.6637660000491975,0.7360405968740192,0.4666666666666667,0.3764705882352941,0.42745098039215684,0.4392156862745098,0.5215686274509804,0.49019607843137253,0.49411764705882355,0.5254901960784314
244,16.267139911651608,0,0.35451437382576156,0.6989744515608062,0.782626169337763,0.5080019843570129,0.4805977993569636,0.6381435700645217,0.7386995265595372,0.5725490196078431,0.5529411764705883,0.5607843137254902,0.5490196078431373,0.5490196078431373,0.5647058823529412,0.6274509803921569,0.41568627450980394
245,16.295766949653625,0,0.3490850571490004,0.6694148357973921,0.7932837214642627,0.5097526456142204,0.4794482659393245,0.6026105826291573,0.7515107440270986,0.4,0.42745098039215684,0.49411764705882355,0.5294117647058824,0.4196078431372549,0.4588235294117647,0.43529411764705883,0.5215686274509804
246,16.325268983840942,0,0.34285139497295697,0.6362356632280886,0.8063542936156556,0.5111189244567566,0.4783657714761644,0.56272660269326,0.7672226017097448,0.5254901960784314,0.5058823529411764,0.4745098039215686,0.4823529411764706,0.4745098039215686,0.42745098039215684,0.5254901960784314,0.5529411764705883
247,16.327897906303402,0,0.3350090459165875,0.6295998303615232,0.8071586432331763,0.5119927971786927,0.47760857584166866,0.5547498086862594,0.7681894933324829,0.6509803921568628,0.49411764705882355,0.49411764705882355,0.4117647058823529,0.4117647058823529,0.49019607843137253,0.35294117647058826,0.29411764705882354
248,16.355646967887882,0,0.34023727724808767,0.646692125891089,0.8107781876843504,0.5126611322879411,0.4771279121815636,0.5752960947799134,0.7725404709816747,0.5490196078431373,0.5568627450980392,0.5019607843137255,0.5843137254901961,0.5647058823529412,0.5137254901960784,0.5019607843137255,0.43137254901960786
249,16.385201930999756,0,0.34285139497295697,0.6563442471730456,0.811984707992393,0.5133193041293159,0.47679054416289635,0.5868987051447229,0.7739908034653347,0.09411764705882353,0.3333333333333333,0.4470588235294118,0.4588235294117647,0.4666666666666667,0.5568627450980392,0.788235294117647,0.5725490196078431
250,16.38772988319397,0,0.3380253384502171,0.6533279669941312,0.8077619075054359,0.5139251051909363,0.47627805902890336,0.5832728986878083,0.7689146645247599,0.7019607843137254,0.7450980392156863,0.5019607843137255,0.49019607843137253,0.5372549019607843,0.611764705882353,0.5529411764705883,0.6627450980392157
251,16.415812969207767,0,0.3394329358670438,0.6663985432637625,0.8035391070184791,0.5145872472908765,0.47539992397202363,0.5989847613209014,0.7638385255841853,0.4,0.36470588235294116,0.4823529411764706,0.4666666666666667,0.5215686274509804,0.45098039215686275,0.4470588235294118,0.4117647058823529
252,16.445320963859555,0,0.34265030962769605,0.6615724826227842,0.7997184689855671,0.5154978919337896,0.4743757507260189,0.5931834561384967,0.7592458176036383,0.3215686274509804,0.35294117647058826,0.4470588235294118,0.4666666666666667,0.43137254901960786,0.5215686274509804,0.5176470588235295,0.5450980392156862
253,16.447788953781128,0,0.34023727724808767,0.6440780122844582,0.8083651594229804,0.5169491452006081,0.47298655626390784,0.5721537242334737,0.7696398208656958,0.5098039215686274,0.4627450980392157,0.5686274509803921,0.5294117647058824,0.47843137254901963,0.4823529411764706,0.4627450980392157,0.48627450980392156
254,16.475718975067142,0,0.34566659804308725,0.6108988438333931,0.8170118416239169,0.5182439841412031,0.4712612313949018,0.5322697492480234,0.780033814226859,0.5450980392156862,0.5725490196078431,0.5607843137254902,0.5450980392156862,0.4980392156862745,0.4196078431372549,0.2901960784313726,0.6313725490196078
255,16.5051109790802,0,0.33681881814217457,0.5998391251346098,0.8246531094532641,0.519363468345012,0.46960053461264234,0.518975095869987,0.7892192202870589,0.49411764705882355,0.4666666666666667,0.5176470588235295,0.5372549019607843,0.47843137254901963,0.5764705882352941,0.5450980392156862,0.47058823529411764
256,16.507792949676517,0,0.3319927575011963,0.6016488932419584,0.8383269541133932,0.5200353083707996,0.4677622454915127,0.5211505797441358,0.8056562590628762,0.49411764705882355,0.5803921568627451,0.5058823529411764,0.5411764705882353,0.5176470588235295,0.5098039215686274,0.5411764705882353,0.48627450980392156
257,16.535727977752686,0,0.33742207417795744,0.5923989467687623,0.8284737474861757,0.5206002385412533,0.465762007444314,0.5100314151906954,0.7938119282676058,0.396078431372549,0.34901960784313724,0.48627450980392156,0.4627450980392157,0.49019607843137253,0.4549019607843137,0.4235294117647059,0.5294117647058824
258,16.565136909484867,0,0.32917755031282764,0.5672632127193277,0.83732152326885,0.5211828467582619,0.4638035858236759,0.4798162821759197,0.8044476519601242,0.43137254901960786,0.4549019607843137,0.4745098039215686,0.4549019607843137,0.4823529411764706,0.44313725490196076,0.5019607843137255,0.5764705882352941
259,16.567654967308044,0,0.32797103824126184,0.535893820612088,0.8493866728121765,0.5212972763427237,0.4618959508397238,0.4421078009655124,0.8189509124409126,0.6196078431372549,0.5411764705882353,0.48627450980392156,0.5254901960784314,0.5176470588235295,0.5019607843137255,0.43529411764705883,0.47843137254901963
260,16.596518993377686,0,0.3297808145850873,0.5505730878802838,0.8568268470597858,0.5210242789875545,0.46038457439300945,0.4597534369431876,0.8278945881697573,0.4117647058823529,0.5019607843137255,0.41568627450980394,0.4549019607843137,0.4745098039215686,0.4666666666666667,0.4980392156862745,0.5137254901960784
261,16.62575089931488,0,0.33681881814217457,0.5674643021828271,0.8658757164241979,0.520791820843597,0.45887953451856905,0.48005800755682776,0.8387720421936308,0.5019607843137255,0.47058823529411764,0.49411764705882355,0.41568627450980394,0.48627450980392156,0.5529411764705883,0.6,0.5607843137254902
262,16.628455996513367,0,0.3364166474516526,0.5837522563313489,0.8411421654200003,0.5207258313839008,0.4575768887229147,0.4996374119286379,0.8090403648911183,0.5215686274509804,0.5803921568627451,0.6705882352941176,0.5725490196078431,0.47058823529411764,0.4666666666666667,0.4392156862745098,0.41568627450980394
263,16.655818939208984,0,0.33058515596613114,0.5702795011347188,0.8326965479731329,0.5210272740080433,0.456247020418718,0.48344209853372855,0.7988880672081805,0.6196078431372549,0.5294117647058824,0.3686274509803922,0.4627450980392157,0.5529411764705883,0.4823529411764706,0.49019607843137253,0.5607843137254902
264,16.68512499332428,0,0.3317916721559353,0.5389101090274793,0.8419464985645674,0.521417235576584,0.454553358609293,0.44573361732332123,0.8100072367120681,0.5568627450980392,0.4392156862745098,0.38823529411764707,0.4392156862745098,0.5372549019607843,0.5098039215686274,0.5333333333333333,0.5137254901960784
265,16.68776297569275,0,0.33159059092891274,0.5346873044222838,0.8612507411284805,0.5216927873624512,0.4527425791226369,0.44065747343229944,0.833212457441687,0.6823529411764706,0.6235294117647059,0.42745098039215684,0.4196078431372549,0.5568627450980392,0.6980392156862745,0.615686274509804,0.5019607843137255
266,16.715759992599487,0,0.34023727724808767,0.5286547275915014,0.8578322737860905,0.5217827122338226,0.4506875693288456,0.43340584071668176,0.829103190322062,0.5529411764705883,0.5254901960784314,0.49019607843137253,0.43529411764705883,0.4666666666666667,0.42745098039215684,0.48627450980392156,0.5254901960784314
267,16.745094895362858,0,0.3410416186291315,0.5262416993301314,0.8379247916593482,0.5221436542815275,0.4488435822431166,0.4305051906007029,0.8051728281028485,0.49411764705882355,0.5372549019607843,0.5058823529411764,0.3686274509803922,0.47058823529411764,0.5803921568627451,0.5215686274509804,0.4549019607843137
268,16.747737884521484,0,0.32776995289600086,0.483008238906588,0.8638648588533497,0.5224195575491379,0.4470630499881741,0.37853516438952123,0.8363548329385739,0.47058823529411764,0.5333333333333333,0.6392156862745098,0.7333333333333333,0.5215686274509804,0.4588235294117647,0.4588235294117647,0.4392156862745098
269,16.775714993476868,0,0.32756886755073994,0.4695354857690771,0.8747234922068722,0.5220542640584418,0.44539979382476974,0.36233985346983544,0.8494077658861493,0.36470588235294116,0.44313725490196076,0.5294117647058824,0.5803921568627451,0.5333333333333333,0.3686274509803922,0.4392156862745098,0.48627450980392156
270,16.805130958557132,0,0.34566659804308725,0.4920571020936424,0.8608485704379585,0.5212985288058373,0.4440701680924804,0.38941261098772423,0.832729016580765,0.5882352941176471,0.6470588235294118,0.43137254901960786,0.4980392156862745,0.5607843137254902,0.596078431372549,0.5764705882352941,0.5411764705882353
271,16.807726979255676,0,0.3416448787831528,0.502714652161023,0.849788847620937,0.5208797655361329,0.4433774124277419,0.4022238259800621,0.8194343582522816,0.39215686274509803,0.3254901960784314,0.4627450980392157,0.47843137254901963,0.47843137254901963,0.20784313725490197,0.3764705882352941,0.49411764705882355
272,16.835729956626892,0,0.3396340212123048,0.4946712177593925,0.8648702855796547,0.5207266432572235,0.44274184432777547,0.3925549840093876,0.8375634350908787,0.4980392156862745,0.611764705882353,0.5843137254901961,0.5058823529411764,0.3803921568627451,0.4745098039215686,0.47843137254901963,0.4666666666666667
273,16.865372896194458,0,0.34204704535543634,0.4852201826463446,0.8411421654200003,0.5199379330765592,0.4421057415795234,0.38119409506512847,0.8090403648911183,0.5372549019607843,0.4627450980392157,0.49019607843137253,0.4823529411764706,0.4627450980392157,0.5529411764705883,0.4745098039215686,0.5019607843137255
274,16.868305921554565,0,0.34425899238978375,0.484818011132175,0.8447617016346975,0.5188543049610157,0.44210783561864203,0.3807106532141171,0.8133913326394159,0.6078431372549019,0.6078431372549019,0.4745098039215686,0.44313725490196076,0.5647058823529412,0.5137254901960784,0.5372549019607843,0.5686274509803921
275,16.895681977272037,0,0.33259601765521757,0.5049265971362511,0.8839734510347836,0.5178548047433026,0.4425296038097294,0.40488275814080354,0.8605269452909309,0.6352941176470588,0.37254901960784315,0.2823529411764706,0.4235294117647059,0.45098039215686275,0.41568627450980394,0.44313725490196076,0.4745098039215686
276,16.92515790462494,0,0.34425899238978375,0.5115624304146403,0.8588377005123954,0.5171321335268053,0.44262154351306604,0.41285955264284885,0.8303117924743668,0.39215686274509803,0.5333333333333333,0.49019607843137253,0.4588235294117647,0.49019607843137253,0.5725490196078431,0.5529411764705883,0.49411764705882355
277,16.927847981452945,0,0.3516991666373929,0.5019103091326838,0.8296802595577416,0.5163793190379834,0.44271354262176776,0.4012569422780394,0.7952622508503717,0.5647058823529412,0.5411764705882353,0.5843137254901961,0.5215686274509804,0.5137254901960784,0.5215686274509804,0.5254901960784314,0.5333333333333333
278,16.95648193359375,0,0.3410416186291315,0.5131711172949665,0.8387291248039153,0.5157111769961713,0.44361819722370316,0.4147933210369838,0.8061396999237983,0.49019607843137253,0.4666666666666667,0.39215686274509803,0.5098039215686274,0.6666666666666666,0.5725490196078431,0.5529411764705883,0.5019607843137255
279,16.985912919044495,0,0.33882967159478417,0.5186004356190229,0.9046853074884771,0.5154705357631757,0.44392092201364164,0.4213197894909503,0.885424228835565,0.5607843137254902,0.5333333333333333,0.6039215686274509,0.5490196078431373,0.34509803921568627,0.49019607843137253,0.5058823529411764,0.5882352941176471
280,16.988470911979675,0,0.3523024309096526,0.4914538439987403,0.8823647435632654,0.5150180302461129,0.4430148416829447,0.38868744722111775,0.8585931521445607,0.44313725490196076,0.5686274509803921,0.5882352941176471,0.5294117647058824,0.5333333333333333,0.5058823529411764,0.5137254901960784,0.5333333333333333
281,17.016580939292908,0,0.36517192595226133,0.44138346536337053,0.8457671283610025,0.5146794246156733,0.4420748903932648,0.32849890657247444,0.8145999347917208,0.4196078431372549,0.4470588235294118,0.47843137254901963,0.5254901960784314,0.5411764705882353,0.5333333333333333,0.47843137254901963,0.4666666666666667
282,17.045768976211548,0,0.34244922428243507,0.4739593746899739,0.8385280312221773,0.5138952193418601,0.4428914022847808,0.36765771655370644,0.805897969592443,0.25098039215686274,0.5019607843137255,0.4627450980392157,0.4980392156862745,0.4549019607843137,0.4549019607843137,0.49411764705882355,0.49411764705882355
283,17.048371911048893,0,0.3340036150720443,0.535893820612088,0.8477779900500888,0.5131710035858712,0.44419112731665267,0.4421078009655124,0.8170171489972248,0.5843137254901961,0.43137254901960786,0.4392156862745098,0.5098039215686274,0.5686274509803921,0.5137254901960784,0.48627450980392156,0.4823529411764706
284,17.076390981674194,0,0.3327971030004785,0.5049265971362511,0.8735169801353063,0.5130769599425217,0.4446122618505126,0.40488275814080354,0.8479574433033834,0.5725490196078431,0.5098039215686274,0.4666666666666667,0.4823529411764706,0.3764705882352941,0.4666666666666667,0.4980392156862745,0.47843137254901963
285,17.105703949928287,0,0.34425899238978375,0.4775789201707076,0.8948320926247827,0.5125709747455565,0.44525100813751023,0.37200869544051,0.8735798881394006,0.5607843137254902,0.5490196078431373,0.6039215686274509,0.5254901960784314,0.5490196078431373,0.5176470588235295,0.5058823529411764,0.5098039215686274
286,17.108154892921448,0,0.34043836259334864,0.449426899765001,0.8835712638713079,0.5118082445112153,0.4472712360900543,0.338167748543149,0.8600434846282206,0.5607843137254902,0.4470588235294118,0.5058823529411764,0.5333333333333333,0.6666666666666666,0.40784313725490196,0.43137254901960786,0.44313725490196076
287,17.136628985404972,0,0.34848179287674075,0.5057309405764142,0.8459682054697867,0.5106948196546433,0.45096002708528216,0.40584964233787096,0.8148416453212876,0.403921568627451,0.15294117647058825,0.4235294117647059,0.4392156862745098,0.43529411764705883,0.4823529411764706,0.49411764705882355,0.403921568627451
288,17.165891885757446,0,0.33420470041730527,0.5837522563313489,0.8443595391806525,0.5092721304675281,0.45434246461285516,0.4996374119286379,0.8129079016793881,0.49019607843137253,0.8901960784313725,0.6235294117647059,0.6313725490196078,0.5058823529411764,0.6392156862745098,0.5254901960784314,0.5411764705882353
289,17.168331980705258,0,0.3327971030004785,0.6209531358058715,0.8580333673678283,0.5076745221829707,0.45718507073671566,0.5443558004737548,0.8293449206534173,0.4745098039215686,0.6470588235294118,0.48627450980392156,0.5764705882352941,0.4823529411764706,0.4823529411764706,0.4823529411764706,0.4823529411764706
290,17.196477890014652,0,0.3386285903677616,0.6040619256215667,0.8570279406415235,0.5068853714125156,0.459509236338735,0.5240512348105617,0.8281363185011122,0.5529411764705883,0.5254901960784314,0.4823529411764706,0.3764705882352941,0.4823529411764706,0.5529411764705883,0.5019607843137255,0.5176470588235295
291,17.225741982460026,0,0.3595415198120008,0.571284931979262,0.8184194555136973,0.5061315173298049,0.46156485998796537,0.4846507056364805,0.7817258770418744,0.615686274509804,0.5098039215686274,0.5372549019607843,0.5294117647058824,0.5058823529411764,0.4823529411764706,0.49411764705882355,0.4823529411764706
292,17.228606939315796,0,0.3531067722906964,0.5901870038526532,0.8172129352056547,0.5049797166073989,0.46388879291897156,0.5073724855051776,0.7802755445582144,0.4549019607843137,0.4980392156862745,0.611764705882353,0.5450980392156862,0.4588235294117647,0.47058823529411764,0.4980392156862745,0.5098039215686274
293,17.256334900856018,0,0.34305248031821794,0.650110593233479,0.8178161953596761,0.5036540314309924,0.46624823045649993,0.5794053618995384,0.7810007108000444,0.30196078431372547,0.4117647058823529,0.4,0.4,0.4627450980392157,0.4549019607843137,0.49019607843137253,0.5137254901960784
294,17.285935997962948,0,0.33681881814217457,0.6967625086446972,0.852000790537046,0.5028650638270796,0.46820962234539143,0.6354846403790038,0.8220932879377995,0.7764705882352941,0.5215686274509804,0.5882352941176471,0.592156862745098,0.5215686274509804,0.5137254901960784,0.5215686274509804,0.5215686274509804
295,17.28834891319275,0,0.3370199034874355,0.682083237258263,0.8278704832139162,0.5027758567705362,0.46884520529669915,0.6178389994508815,0.7930867570753288,0.32941176470588235,0.5019607843137255,0.396078431372549,0.44313725490196076,0.48627450980392156,0.5058823529411764,0.4980392156862745,0.45098039215686275
296,17.316361904144287,0,0.37743816084084875,0.6404584719515225,0.8049467003170673,0.5025356709786727,0.4683629327412902,0.5678027515347289,0.765530563646965,0.4196078431372549,0.4666666666666667,0.5686274509803921,0.5490196078431373,0.5215686274509804,0.5137254901960784,0.48627450980392156,0.44313725490196076
297,17.345802903175358,0,0.3814598801007832,0.5895837436986319,0.7237080025650037,0.5019602706126257,0.4678785017909504,0.5066473192633475,0.6678752473670342,0.34901960784313724,0.47058823529411764,0.5098039215686274,0.4470588235294118,0.5568627450980392,0.4980392156862745,0.48627450980392156,0.4666666666666667
298,17.348379969596866,0,0.3796501037569577,0.7134526417202179,0.8023325867104364,0.5009614288043753,0.47008277746536875,0.6555474955126301,0.7623881931005252,0.6235294117647059,0.5098039215686274,0.48627450980392156,0.5215686274509804,0.38823529411764707,0.49019607843137253,0.4980392156862745,0.5137254901960784
299,17.37645697593689,0,0.3058516008436953,0.7544741509911755,0.8495877663939142,0.5015390766734008,0.47277466227715803,0.7048585821373997,0.8191926427722677,0.5411764705882353,0.5058823529411764,0.5058823529411764,0.4666666666666667,0.47058823529411764,0.5137254901960784,0.5098039215686274,0.4745098039215686
300,17.40591597557068,0,0.33259601765521757,0.6869093020174797,0.8721093827184795,0.5025674231463015,0.47325891996184966,0.6236403095837334,0.8462654002901565,0.5843137254901961,0.5137254901960784,0.5333333333333333,0.4549019607843137,0.5372549019607843,0.49411764705882355,0.4980392156862745,0.5529411764705883
301,17.408344984054565,0,0.3768349048050659,0.5535893762956751,0.678262607461828,0.5023846724415645,0.47087080448433477,0.46337925330099644,0.6132463013712287,0.5882352941176471,0.5019607843137255,0.5725490196078431,0.5529411764705883,0.5294117647058824,0.4745098039215686,0.49411764705882355,0.43137254901960786
302,17.436333894729614,0,0.4482203843988445,0.762919756083328,0.7540719803006537,0.5012035056670268,0.4720469663568655,0.7150108649689962,0.7043751412764778,0.49411764705882355,0.5019607843137255,0.396078431372549,0.4470588235294118,0.40784313725490196,0.4980392156862745,0.5254901960784314,0.6274509803921569
303,17.466007947921753,0,0.3058516008436953,0.7944902252993518,0.8115825331836326,0.504649650498188,0.475402112069637,0.7529610567089704,0.7735073576539656,0.6078431372549019,0.5686274509803921,0.5294117647058824,0.5254901960784314,0.5333333333333333,0.49019607843137253,0.47843137254901963,0.4666666666666667
304,17.468223929405212,0,0.32575909532515285,0.6507138451510234,0.8797506505478265,0.5083348128156996,0.47582433570185656,0.5801305182404742,0.8554508063503562,0.39215686274509803,0.49411764705882355,0.5372549019607843,0.43529411764705883,0.5450980392156862,0.5294117647058824,0.5294117647058824,0.5333333333333333
305,17.496326923370358,0,0.36557409664278323,0.6000402104798707,0.8457671283610025,0.5091215378670811,0.47476773207697187,0.519216816300448,0.8145999347917208,0.30196078431372547,0.2823529411764706,0.43529411764705883,0.5568627450980392,0.5137254901960784,0.4745098039215686,0.4745098039215686,0.5019607843137255
306,17.525678992271427,0,0.3832696523263702,0.6551377351014799,0.7397948713682646,0.510146493283726,0.47404081337687237,0.585448382561957,0.6872129313083833,0.5490196078431373,0.4588235294117647,0.5568627450980392,0.5607843137254902,0.48627450980392156,0.5098039215686274,0.5137254901960784,0.5019607843137255
307,17.528317928314213,0,0.3392318505217829,0.7892619980860899,0.7432133387106545,0.512382412215937,0.47591415166339207,0.7466763156160907,0.6913221984280082,0.3568627450980392,0.44313725490196076,0.5019607843137255,0.3764705882352941,0.45098039215686275,0.4588235294117647,0.4745098039215686,0.40784313725490196
308,17.556347966194153,0,0.30967222652189197,0.6953549071096321,0.8003217332578269,0.5167107118670142,0.47727952457411094,0.6337925924153299,0.7599709887959155,0.611764705882353,0.5137254901960784,0.43137254901960786,0.4549019607843137,0.5529411764705883,0.5058823529411764,0.5411764705882353,0.6078431372549019
309,17.585730910301212,0,0.31268851493728317,0.5827468254868057,0.8491855792304389,0.5194607792834403,0.4774007164692964,0.49842880482588586,0.8187091821095573,0.47058823529411764,0.5490196078431373,0.5058823529411764,0.47843137254901963,0.47843137254901963,0.5019607843137255,0.5098039215686274,0.5764705882352941
310,17.588367938995358,0,0.3161069740431963,0.6153227337838494,0.7956967456073943,0.5201231342526054,0.4775198390775986,0.5375876135695061,0.7544113891926304,0.5294117647058824,0.596078431372549,0.5058823529411764,0.5372549019607843,0.4823529411764706,0.5215686274509804,0.47843137254901963,0.42745098039215684
311,17.616458892822266,0,0.3177156609235224,0.685501704600653,0.7667403817615246,0.5209943436340074,0.4787247481963751,0.6219482665705064,0.719603558098202,0.33725490196078434,0.5176470588235295,0.36470588235294116,0.4196078431372549,0.5137254901960784,0.5294117647058824,0.5215686274509804,0.43529411764705883
312,17.645729899406433,0,0.30705811291526103,0.6814799812224801,0.8043434401630459,0.5228993994350262,0.4799948893564432,0.6171138381594985,0.764805397405135,0.3568627450980392,0.5686274509803921,0.47058823529411764,0.5450980392156862,0.5529411764705883,0.4470588235294118,0.42745098039215684,0.4
313,17.648384928703308,0,0.3203297786483917,0.6525236173766105,0.8220389999648714,0.5244975423678693,0.48002275047266,0.5823060070650701,0.7860768546910661,0.5647058823529412,0.5058823529411764,0.49411764705882355,0.49019607843137253,0.4588235294117647,0.48627450980392156,0.47843137254901963,0.42745098039215684
314,17.676318883895874,0,0.33541121660710943,0.6611703119322622,0.8015282412111542,0.5259571074353503,0.47918342692095794,0.5927000152775748,0.7614213064282342,0.5882352941176471,0.49019607843137253,0.49411764705882355,0.43529411764705883,0.4470588235294118,0.4196078431372549,0.33725490196078434,0.49019607843137253
315,17.705958962440487,0,0.32354715240904386,0.6505127598057625,0.7975065219512197,0.5274945925400119,0.4781536299670601,0.5798887978100133,0.7565868829676734,0.5215686274509804,0.4666666666666667,0.5176470588235295,0.4823529411764706,0.4235294117647059,0.5294117647058824,0.5725490196078431,0.6392156862745098
316,17.708325982093807,0,0.31650914885195663,0.6372410981908702,0.8015282412111542,0.5290002759725738,0.47706240786568216,0.5639352147464591,0.7614213064282342,0.5176470588235295,0.596078431372549,0.5568627450980392,0.6078431372549019,0.5607843137254902,0.5372549019607843,0.5019607843137255,0.49019607843137253
317,17.736326932907104,0,0.31852000230456623,0.6006434665156536,0.8127890411369599,0.530389203110542,0.4757323563949432,0.519941977591831,0.7749576752862843,0.7137254901960784,0.6039215686274509,0.5294117647058824,0.5529411764705883,0.5254901960784314,0.4549019607843137,0.5137254901960784,0.7058823529411765
318,17.765957951545715,0,0.3213352053746965,0.5809370532612186,0.8322943772826109,0.53126579362793,0.4744636310627426,0.4962533160012899,0.7984046263472586,0.5215686274509804,0.6588235294117647,0.43137254901960786,0.5450980392156862,0.5333333333333333,0.5803921568627451,0.6941176470588235,0.47058823529411764
319,17.7688729763031,0,0.3199276079578698,0.5835511709860879,0.8385280312221773,0.531453663094957,0.47338027522178905,0.49939569149817686,0.805897969592443,0.5294117647058824,0.5568627450980392,0.5764705882352941,0.5725490196078431,0.49019607843137253,0.5372549019607843,0.45098039215686275,0.4392156862745098
320,17.796805977821354,0,0.32495474982587064,0.6261813712556101,0.8274683166416326,0.5315751718187561,0.472504456974147,0.5506405514675285,0.7926033211648539,0.5333333333333333,0.5058823529411764,0.4117647058823529,0.3843137254901961,0.48627450980392156,0.4980392156862745,0.5176470588235295,0.5372549019607843
321,17.825856924057007,0,0.32736778220547896,0.6121053600231972,0.8248542030350017,0.5321126864132311,0.47141262101733,0.5337200767812363,0.789460950618414,0.43529411764705883,0.45098039215686275,0.5607843137254902,0.5607843137254902,0.5686274509803921,0.49411764705882355,0.47843137254901963,0.4588235294117647
322,17.828333973884586,0,0.326965611514957,0.5726925293960887,0.8401367263389804,0.5326312853493791,0.47005613415913583,0.4863427486497074,0.8078317478874721,0.4627450980392157,0.3803921568627451,0.49411764705882355,0.5098039215686274,0.5333333333333333,0.5372549019607843,0.5058823529411764,0.43137254901960786
323,17.856362938880924,0,0.32314498171852196,0.5580132662461313,0.8580333673678283,0.5326037262104346,0.46863769740607014,0.46869711762247923,0.8293449206534173,0.4470588235294118,0.5607843137254902,0.5215686274509804,0.5294117647058824,0.5019607843137255,0.4392156862745098,0.396078431372549,0.4627450980392157
324,17.885797977447513,0,0.3340036150720443,0.6006434665156536,0.833098710427178,0.5323331298221036,0.4673392644408885,0.519941977591831,0.7993714981682082,0.611764705882353,0.5647058823529412,0.4745098039215686,0.47843137254901963,0.5294117647058824,0.5411764705882353,0.6039215686274509,0.6
325,17.888346910476685,0,0.34305248031821794,0.6139151322487842,0.8224411624189165,0.5327784076864166,0.46594448092401397,0.5358955656058322,0.7865602856510938,0.4588235294117647,0.34509803921568627,0.5058823529411764,0.47843137254901963,0.4470588235294118,0.4470588235294118,0.4666666666666667,0.5450980392156862
326,17.916419982910156,0,0.3422481389371741,0.5905891745431752,0.8284737474861757,0.5335051927244446,0.4640419647023518,0.5078559263660994,0.7938119282676058,0.42745098039215684,0.5294117647058824,0.5098039215686274,0.5176470588235295,0.47843137254901963,0.48627450980392156,0.5176470588235295,0.4823529411764706
327,17.945845961570736,0,0.3348079646895649,0.5423285681333924,0.836115007079046,0.533871773331384,0.4616573491909289,0.4498428745420521,0.8029973244269113,0.4666666666666667,0.6,0.5450980392156862,0.5490196078431373,0.592156862745098,0.6352941176470588,0.5803921568627451,0.43529411764705883
328,17.94867491722107,0,0.32636235547917414,0.5421274827881315,0.8465714738602848,0.5335679990466627,0.4594204946242179,0.4496011541115911,0.8155668214640118,0.5882352941176471,0.5215686274509804,0.4470588235294118,0.5058823529411764,0.4745098039215686,0.47058823529411764,0.40784313725490196,0.5254901960784314
329,17.976475954055786,0,0.33681881814217457,0.5706816759434792,0.8393323808396982,0.5334121292696189,0.4573329851452875,0.48392554434509755,0.8068648612151812,0.6274509803921569,0.5882352941176471,0.47058823529411764,0.47058823529411764,0.592156862745098,0.6392156862745098,0.5490196078431373,0.4588235294117647
330,18.005844950675964,0,0.3490850571490004,0.618942282353262,0.8083651594229804,0.533778477205545,0.4550689823267405,0.541938596169145,0.7696398208656958,0.49019607843137253,0.41568627450980394,0.5137254901960784,0.4980392156862745,0.4196078431372549,0.4627450980392157,0.5098039215686274,0.5372549019607843
331,18.008505940437317,0,0.3519002602191306,0.5338829589230016,0.8300824302482634,0.5350749992981503,0.45156266481121266,0.43969058676000844,0.7957456917112936,0.5490196078431373,0.4588235294117647,0.5490196078431373,0.5254901960784314,0.43137254901960786,0.4627450980392157,0.4980392156862745,0.5137254901960784
332,18.0362309217453,0,0.3334003590362614,0.43233460176449223,0.8717071955550042,0.5353513332546574,0.44745569964948406,0.3176214594792267,0.8457819396274462,0.49411764705882355,0.4823529411764706,0.4470588235294118,0.4549019607843137,0.5137254901960784,0.5450980392156862,0.5254901960784314,0.5176470588235295
333,18.065860986709595,0,0.34003619190282675,0.4238889950250444,0.8654735416154374,0.5340198263524744,0.4440404159054756,0.30746917466745133,0.8382885963822617,0.4,0.4627450980392157,0.5215686274509804,0.42745098039215684,0.5450980392156862,0.48627450980392156,0.4980392156862745,0.5058823529411764
334,18.068320989608765,0,0.35089483349282585,0.5212145492256538,0.835511751043263,0.5326861214517837,0.4424974556063335,0.4244621600373901,0.8022721631355284,0.4549019607843137,0.6235294117647059,0.5333333333333333,0.43529411764705883,0.4196078431372549,0.43137254901960786,0.5372549019607843,0.44313725490196076
335,18.095326900482174,0,0.34988939853004425,0.5447415963947624,0.8435551854448935,0.5321777649906629,0.44120072064450344,0.4527435246580309,0.811941005106203,0.6470588235294118,0.3843137254901961,0.5098039215686274,0.49019607843137253,0.3803921568627451,0.5372549019607843,0.5411764705882353,0.615686274509804
336,18.125214934349057,0,0.3474763661504359,0.4972853354842618,0.878544130239784,0.5318434068438258,0.4392056310622772,0.39569735950627444,0.8540004738666961,0.6,0.6235294117647059,0.5176470588235295,0.5686274509803921,0.5647058823529412,0.41568627450980394,0.4470588235294118,0.3333333333333333
337,18.127137899398804,0,0.3543132884805006,0.4604866221701988,0.8773376099317415,0.5309654351517,0.4369085493562817,0.3514624063765877,0.8525501413830362,0.30196078431372547,0.403921568627451,0.5294117647058824,0.5686274509803921,0.5176470588235295,0.5607843137254902,0.5058823529411764,0.5490196078431373
338,18.155094981193546,0,0.3561230607060876,0.45103558664532706,0.8598431395934153,0.5298490895313455,0.43521723900922404,0.3401015169372839,0.8315204094780131,0.6509803921568628,0.7176470588235294,0.5725490196078431,0.5333333333333333,0.5686274509803921,0.4666666666666667,0.5137254901960784,0.4823529411764706
339,18.1851749420166,0,0.3490850571490004,0.4639050816879358,0.8612507411284805,0.5285822057654619,0.434251297872327,0.3555716640903632,0.833212457441687,0.5686274509803921,0.4235294117647059,0.44313725490196076,0.5215686274509804,0.5607843137254902,0.3607843137254902,0.48627450980392156,0.5450980392156862
340,18.18723499774933,0,0.3432535656634789,0.4681278847282006,0.849788847620937,0.5272495800622367,0.4337362682085303,0.36064780610021513,0.8194343582522816,0.5098039215686274,0.5137254901960784,0.5333333333333333,0.5294117647058824,0.5607843137254902,0.5647058823529412,0.5137254901960784,0.5294117647058824
341,18.215358972549442,0,0.3537100283264793,0.4526442735256532,0.8324954708643487,0.5255318244268297,0.4333454254604078,0.3420352853314188,0.7986463566786136,0.41568627450980394,0.4588235294117647,0.4980392156862745,0.4980392156862745,0.47058823529411764,0.21568627450980393,0.4470588235294118,0.40784313725490196
342,18.24528288841248,0,0.3543132884805006,0.46993765748915867,0.835511751043263,0.5238109995142275,0.43382951978034545,0.3628232955683692,0.8022721631355284,0.6392156862745098,0.6039215686274509,0.5254901960784314,0.4980392156862745,0.35294117647058826,0.6235294117647059,0.5490196078431373,0.611764705882353
343,18.247231960296627,0,0.3561230607060876,0.5173939194292188,0.847375819359567,0.5219987893483625,0.4345852302807145,0.41986946195773733,0.8165337081363028,0.5411764705882353,0.4745098039215686,0.4,0.47058823529411764,0.4196078431372549,0.5411764705882353,0.45098039215686275,0.4549019607843137
344,18.275085926055905,0,0.35833500774043503,0.5099537435343142,0.8664789683417424,0.5206677626395471,0.4347053776315642,0.41092578424871395,0.8394971985345667,0.38823529411764707,0.592156862745098,0.5764705882352941,0.5294117647058824,0.43529411764705883,0.6392156862745098,0.5450980392156862,0.4588235294117647
345,18.30518293380737,0,0.36376432853543456,0.48904081409007505,0.847375819359567,0.5195733673015851,0.43433972770867757,0.38578679512496006,0.8165337081363028,0.48627450980392156,0.5450980392156862,0.4666666666666667,0.43529411764705883,0.5058823529411764,0.5450980392156862,0.5254901960784314,0.47058823529411764
346,18.30704391002655,0,0.3679871290223916,0.5137743749780447,0.8375226044958728,0.5184003093593791,0.43428175797326557,0.41551848430854554,0.8046893674401383,0.592156862745098,0.5333333333333333,0.5254901960784314,0.5019607843137255,0.6509803921568628,0.6588235294117647,0.5411764705882353,0.5058823529411764
347,18.33515799045563,0,0.3595415198120008,0.5228232402242183,0.8272672312963717,0.5173750915690386,0.4344035983770197,0.4263959333819721,0.7923616007343929,0.5843137254901961,0.45098039215686275,0.4745098039215686,0.48627450980392156,0.44313725490196076,0.596078431372549,0.5176470588235295,0.5294117647058824
348,18.365397930145267,0,0.35753066224115276,0.5487633156546967,0.9087070143936962,0.516952422396581,0.43416204131131264,0.4575779481185917,0.8902586374447847,0.49019607843137253,0.47843137254901963,0.4235294117647059,0.4666666666666667,0.48627450980392156,0.4117647058823529,0.4588235294117647,0.5725490196078431
349,18.368341922760013,0,0.3617534668463482,0.506736369773662,0.8900060113926123,0.516581465594415,0.43297977058707404,0.4070582474604441,0.8677785582047602,0.6235294117647059,0.5254901960784314,0.36470588235294116,0.4627450980392157,0.5411764705882353,0.4745098039215686,0.49411764705882355,0.5058823529411764
350,18.399327993392944,0,0.3903076558834575,0.476372405216375,0.8606474850926976,0.5160736289302384,0.4315623486756616,0.3705583693924312,0.832487296150304,0.5647058823529412,0.5254901960784314,0.6588235294117647,0.5450980392156862,0.4666666666666667,0.7176470588235294,0.5294117647058824,0.47058823529411764
351,18.425578951835632,0,0.3543132884805006,0.5127689457807968,0.87009852926587,0.5156763605017946,0.43210417015910396,0.41430987918597245,0.8438481959855467,0.6,0.5333333333333333,0.2784313725490196,0.43529411764705883,0.4549019607843137,0.5372549019607843,0.5294117647058824,0.5137254901960784
352,18.427974939346317,0,0.34265030962769605,0.5730947042048491,0.8938266658984779,0.5155910890506868,0.43240878601983046,0.4868261944610764,0.8723712859870957,0.47058823529411764,0.48627450980392156,0.3686274509803922,0.4627450980392157,0.5803921568627451,0.596078431372549,0.48627450980392156,0.47843137254901963
353,18.456248998641968,0,0.35511763397978285,0.5342851337317619,0.8843755970158752,0.5159509370495851,0.43153130937241363,0.4401740325713775,0.8610103564491705,0.48627450980392156,0.5372549019607843,0.3803921568627451,0.4745098039215686,0.6,0.5372549019607843,0.5333333333333333,0.5372549019607843
354,18.48554790019989,0,0.3736175310444137,0.4506334151311575,0.8845766905976129,0.5159261996654815,0.43077840082509694,0.33961807508627256,0.8612520867805254,0.5803921568627451,0.5411764705882353,0.45098039215686275,0.5019607843137255,0.5450980392156862,0.396078431372549,0.4588235294117647,0.4549019607843137
355,18.488269925117493,0,0.3876935422768266,0.46692136960913844,0.8413432425287845,0.5151315885518871,0.4316807534691359,0.35919747985411843,0.8092820754206851,0.5254901960784314,0.5568627450980392,0.43137254901960786,0.4627450980392157,0.44313725490196076,0.5137254901960784,0.5372549019607843,0.5215686274509804
356,18.516377925872806,0,0.36376432853543456,0.5839533416766097,0.8652724480336997,0.5142622553899316,0.4339500631669623,0.49987913235909887,0.8380468660509065,0.4,0.47058823529411764,0.5843137254901961,0.5137254901960784,0.47843137254901963,0.49411764705882355,0.4588235294117647,0.35294117647058826
357,18.545894980430607,0,0.3531067722906964,0.6356324071923057,0.8855821173239177,0.5138352545762712,0.43567039303485555,0.562001441401877,0.8624606889328306,0.6745098039215687,0.5686274509803921,0.4980392156862745,0.4627450980392157,0.47843137254901963,0.49411764705882355,0.4980392156862745,0.5686274509803921
358,18.54716193675995,0,0.3589382637762179,0.5131711172949665,0.8932233851532645,0.5139606196983526,0.43648839996139244,0.4147933210369838,0.8716460949930301,0.45098039215686275,0.3568627450980392,0.5411764705882353,0.5607843137254902,0.5137254901960784,0.4745098039215686,0.4666666666666667,0.3686274509803922
359,18.57619595527649,0,0.39835109028508797,0.5001005364952729,0.852000790537046,0.513559975064994,0.43932462000850814,0.3990814529583988,0.8220932879377995,0.6666666666666666,0.5725490196078431,0.49411764705882355,0.5411764705882353,0.4627450980392157,0.6588235294117647,0.5058823529411764,0.5176470588235295
360,18.605800986289974,0,0.397948919594566,0.540317706444306,0.8505931931202192,0.5123229127923746,0.4444316942929419,0.4474256603365481,0.8204012449245727,0.32941176470588235,0.38823529411764707,0.5568627450980392,0.4823529411764706,0.5019607843137255,0.3803921568627451,0.5215686274509804,0.5882352941176471
361,18.608215928077694,0,0.3605469547747824,0.6464910405458281,0.86909309018485,0.5108437687066566,0.45047533376124665,0.5750543743494524,0.8426395789819006,0.5215686274509804,0.41568627450980394,0.4745098039215686,0.4666666666666667,0.5019607843137255,0.4666666666666667,0.5215686274509804,0.5294117647058824
362,18.695470929145813,0,0.37019907193850055,0.6913331878496977,0.8632615945810902,0.5091824679698524,0.455038022230646,0.6289581689547691,0.8356296617462969,0.6235294117647059,0.5254901960784314,0.4745098039215686,0.4745098039215686,0.5098039215686274,0.4823529411764706,0.4666666666666667,0.403921568627451
363,18.697451949119564,0,0.37944901841169676,0.6543333937204359,0.8260607233430444,0.5077356998080963,0.45775964932854585,0.5844815008401131,0.790911283102074,0.4823529411764706,0.4823529411764706,0.5254901960784314,0.5098039215686274,0.5411764705882353,0.49019607843137253,0.5098039215686274,0.5490196078431373
364,18.72592091560364,0,0.3579328329316747,0.7771968526610018,0.7882565713597851,0.5024149295741724,0.4657343492964279,0.7321730600857494,0.7454677134637859,0.5372549019607843,0.4549019607843137,0.4627450980392157,0.47843137254901963,0.43529411764705883,0.5215686274509804,0.5176470588235295,0.5294117647058824
365,18.728548884391785,0,0.3714055881283047,0.7544741509911755,0.8188216262042192,0.50262085827218,0.4671502613214782,0.7048585821373997,0.7822093179027964,0.4196078431372549,0.4549019607843137,0.5450980392156862,0.4823529411764706,0.4392156862745098,0.48627450980392156,0.49411764705882355,0.4117647058823529
366,18.7563259601593,0,0.3786446770306529,0.7042026828923065,0.8387291248039153,0.5021999217562035,0.46727266112575333,0.6444283161078483,0.8061396999237983,0.5803921568627451,0.49019607843137253,0.5098039215686274,0.4392156862745098,0.5529411764705883,0.49019607843137253,0.5019607843137255,0.5176470588235295
367,18.78580093383789,0,0.3812587947555222,0.6587572795526538,0.7180776087794584,0.5010221262361334,0.4662457997869793,0.5897993602111489,0.6611070703636797,0.40784313725490196,0.5098039215686274,0.4823529411764706,0.5529411764705883,0.5529411764705883,0.48627450980392156,0.49411764705882355,0.5019607843137255
368,18.78839492797852,0,0.41604664596867497,0.7615121545482628,0.7070178941989136,0.49848797751994056,0.467306244958805,0.7133188170053224,0.6478124219360905,0.5647058823529412,0.43529411764705883,0.5215686274509804,0.5176470588235295,0.4392156862745098,0.5098039215686274,0.4823529411764706,0.49411764705882355
369,18.816556930541992,0,0.36859038505817443,0.8037401841272631,0.7645284347271771,0.4985165267483027,0.4696314749069485,0.764080236113752,0.716944623462237,0.3686274509803922,0.4980392156862745,0.596078431372549,0.43137254901960786,0.592156862745098,0.5058823529411764,0.49019607843137253,0.35294117647058826
370,18.84564697742462,0,0.3488839718037394,0.7460285417807848,0.8127890411369599,0.498850053220029,0.4704784122462734,0.6947062943553561,0.7749576752862843,0.34509803921568627,0.49019607843137253,0.5058823529411764,0.4627450980392157,0.48627450980392156,0.4666666666666667,0.4392156862745098,0.32941176470588235
371,18.847001910209656,0,0.3693947264392183,0.7158656658633493,0.8278704832139162,0.49758093680250826,0.4701459649720126,0.6584481406781618,0.7930867570753288,0.49411764705882355,0.7411764705882353,0.615686274509804,0.5215686274509804,0.5333333333333333,0.49019607843137253,0.47058823529411764,0.5647058823529412
372,18.87528192996979,0,0.3659762673333052,0.70983308079609,0.7512567772305233,0.49615976245220234,0.4693292996166369,0.6511964980616499,0.7009910453491299,0.5411764705882353,0.1568627450980392,0.4470588235294118,0.5372549019607843,0.4470588235294118,0.5333333333333333,0.5176470588235295,0.47843137254901963
373,18.905144929885864,0,0.4069977848407397,0.7906696119758704,0.6917353585402195,0.4946523117100296,0.4689995849891692,0.748368378431106,0.629441609815691,0.5607843137254902,0.5647058823529412,0.4745098039215686,0.5098039215686274,0.42745098039215684,0.4196078431372549,0.4588235294117647,0.4745098039215686
374,18.907161951065067,0,0.37703599015032685,0.8172129352056547,0.7269253763256559,0.4948885420946689,0.4697505133576503,0.7802755445582144,0.671742784155304,0.5098039215686274,0.5254901960784314,0.5176470588235295,0.49019607843137253,0.5568627450980392,0.5098039215686274,0.5294117647058824,0.48627450980392156
375,18.934998989105228,0,0.366780608714349,0.7084254874975018,0.7828272505647855,0.49609956996604737,0.46960143064356547,0.6495044599988702,0.738941242039551,0.4470588235294118,0.5215686274509804,0.5137254901960784,0.49411764705882355,0.5372549019607843,0.5294117647058824,0.5568627450980392,0.5647058823529412
376,18.965138912200924,0,0.3645686616800016,0.6873114644715247,0.8037401841272631,0.49543899715783446,0.4700580004776884,0.6241237405437611,0.764080236113752,0.3215686274509804,0.403921568627451,0.5294117647058824,0.45098039215686275,0.48627450980392156,0.5647058823529412,0.48627450980392156,0.5372549019607843
377,18.966968894004825,0,0.3772370754955878,0.7520611268480442,0.7544741509911755,0.49462072290715475,0.47059987146560167,0.701957936971868,0.7048585821373997,0.49019607843137253,0.4980392156862745,0.49019607843137253,0.5098039215686274,0.5294117647058824,0.4980392156862745,0.48627450980392156,0.4627450980392157
378,18.99521398544311,0,0.39392720445287,0.7834305148370452,0.7021918253214583,0.4948034439092093,0.4707219049367922,0.7396664132318282,0.6420111068527915,0.6235294117647059,0.596078431372549,0.5333333333333333,0.5254901960784314,0.396078431372549,0.6078431372549019,0.5294117647058824,0.5450980392156862
379,19.025227904319767,0,0.38045444925624,0.7584958743693485,0.7144580684465226,0.4956156390108636,0.4711419652236339,0.7096930105484077,0.6567560976649349,0.5098039215686274,0.596078431372549,0.3803921568627451,0.41568627450980394,0.4549019607843137,0.5372549019607843,0.5137254901960784,0.47843137254901963
380,19.027144908905033,0,0.3510959147198484,0.6531268734123934,0.7822239986472411,0.4967339846118421,0.4718070082855682,0.5830311683564531,0.7382160856986152,0.3607843137254902,0.4745098039215686,0.4588235294117647,0.5803921568627451,0.4823529411764706,0.2196078431372549,0.4823529411764706,0.49411764705882355
381,19.05510890483856,0,0.3416448787831528,0.6756484897369586,0.8095716673763078,0.4965177688847836,0.47319298000662435,0.6101039258743419,0.7710901384980146,0.592156862745098,0.30980392156862746,0.48627450980392156,0.48627450980392156,0.3764705882352941,0.3215686274509804,0.44313725490196076,0.5686274509803921
382,19.085139989852905,0,0.3589382637762179,0.7677458084878294,0.7679469020695672,0.495830290396642,0.4741962524650194,0.7208121602505068,0.7210538905818621,0.4823529411764706,0.5137254901960784,0.5098039215686274,0.5137254901960784,0.5725490196078431,0.6235294117647059,0.5137254901960784,0.396078431372549
383,19.08716094493866,0,0.3766338194598049,0.7854413724078932,0.7408003104492845,0.4963133748253736,0.4738333797429497,0.7420836224868851,0.6884215483120294,0.4470588235294118,0.6196078431372549,0.47058823529411764,0.43529411764705883,0.5411764705882353,0.47058823529411764,0.5254901960784314,0.29411764705882354
384,19.115081906318665,0,0.3710034133195444,0.7068168006171757,0.7488437530873919,0.4974235026841844,0.4731017828703511,0.6475706916047353,0.6980904001835982,0.30980392156862746,0.3686274509803922,0.4549019607843137,0.4627450980392157,0.40784313725490196,0.4627450980392157,0.47843137254901963,0.49411764705882355
385,19.145167946815487,0,0.3519002602191306,0.6639855150023924,0.7884576649415228,0.4981282186290898,0.4729587248503736,0.5960841112049226,0.7457094437951409,0.48627450980392156,0.4235294117647059,0.5372549019607843,0.4980392156862745,0.6196078431372549,0.9137254901960784,0.5215686274509804,0.4823529411764706
