,time,gesture,ax,ay,az,qw,qx,qy,qz,e0,e1,e2,e3,e4,e5,e6,e7
0,6.303846001625061,0,0.3855858437741686,0.47148104860015466,0.49874322907965973,0.3196999871068094,0.3075786287283593,0.33104924384381473,0.3655552084793841,0.5137254901960784,0.5098039215686274,0.43137254901960786,0.40784313725490196,0.6352941176470588,0.47058823529411764,0.49019607843137253,0.5058823529411764
1,6.306591033935548,0,0.4415603217819026,0.4716743969064192,0.5250386660479506,0.32911384186132064,0.30957449964960343,0.3312939663752104,0.39883755795201004,0.5058823529411764,0.5137254901960784,0.5019607843137255,0.5137254901960784,0.5058823529411764,0.4980392156862745,0.5058823529411764,0.5058823529411764
2,6.362815976142883,0,0.44856921590100546,0.4680007701778809,0.5319025487393658,0.33055129478833184,0.3106603005128333,0.32664422700184953,0.4075252303702426,0.4980392156862745,0.5058823529411764,0.5137254901960784,0.5098039215686274,0.5058823529411764,0.4980392156862745,0.49019607843137253,0.49019607843137253
3,6.364779949188232,0,0.4525812031554524,0.45581979619489565,0.5335943523588554,0.33194305394703916,0.3118914962203155,0.31122666868146265,0.40966656003785007,0.5019607843137255,0.5058823529411764,0.4980392156862745,0.49019607843137253,0.5176470588235295,0.5372549019607843,0.5058823529411764,0.5019607843137255
4,6.393409013748169,0,0.45403131941221964,0.48250192977571543,0.5280355727146171,0.3339306376415761,0.3156535876587232,0.3449984632168799,0.4026307672125035,0.5019607843137255,0.5019607843137255,0.5176470588235295,0.5176470588235295,0.48627450980392156,0.5215686274509804,0.4980392156862745,0.48627450980392156
5,6.395100951194763,0,0.44078692657695284,0.48346867427687545,0.5356245135344161,0.33517035613648843,0.31771124315041416,0.34622207963280593,0.41223615162943494,0.5098039215686274,0.5215686274509804,0.5176470588235295,0.5176470588235295,0.5607843137254902,0.5647058823529412,0.596078431372549,0.47058823529411764
6,6.422803997993469,0,0.42043696507347256,0.4709010017014695,0.5481438440835267,0.3366607037226238,0.31937781020496664,0.3303150737436626,0.42808197062081654,0.49019607843137253,0.48627450980392156,0.4666666666666667,0.4627450980392157,0.36470588235294116,0.42745098039215684,0.44313725490196076,0.4980392156862745
7,6.482648968696594,0,0.408497675483372,0.4570282260788863,0.5530742397525136,0.33801476188883117,0.3206399282692539,0.3127561882616333,0.43432241271316213,0.5098039215686274,0.5098039215686274,0.5294117647058824,0.5098039215686274,0.6392156862745098,0.5176470588235295,0.43529411764705883,0.5176470588235295
8,6.484673023223878,0,0.4131863857695282,0.4427687518638825,0.5440835217324053,0.33919350022810546,0.3219330188096491,0.2947078552108475,0.4229427874376469,0.5019607843137255,0.5019607843137255,0.47843137254901963,0.5372549019607843,0.5372549019607843,0.5098039215686274,0.4117647058823529,0.49411764705882355
9,6.512714982032776,0,0.39931360915699926,0.4386117525085847,0.5191415288476411,0.34040350424140864,0.3261862744029319,0.28944630715339026,0.3913735032026861,0.47843137254901963,0.47058823529411764,0.49019607843137253,0.4980392156862745,0.4823529411764706,0.5215686274509804,0.5176470588235295,0.4980392156862745
10,6.514863014221191,0,0.38283062348027846,0.46829079362722353,0.5157095845320959,0.34043222761380626,0.3291674494675263,0.32701131205192563,0.3870296632346221,0.49411764705882355,0.49019607843137253,0.5058823529411764,0.5019607843137255,0.5019607843137255,0.5019607843137255,0.592156862745098,0.592156862745098
11,6.543164014816284,0,0.36736271938128384,0.49468290672853826,0.5111175523588554,0.34067658552727453,0.3317596523825401,0.3604160252962145,0.3812174905841493,0.49019607843137253,0.4980392156862745,0.5019607843137255,0.49019607843137253,0.44313725490196076,0.48627450980392156,0.4588235294117647,0.48627450980392156
12,6.602548003196716,0,0.3793986821345708,0.5001450082598607,0.5290989913689095,0.34187071550441883,0.3330912533421744,0.367329451843933,0.4039767448941274,0.5058823529411764,0.5098039215686274,0.4980392156862745,0.4980392156862745,0.5098039215686274,0.5372549019607843,0.5137254901960784,0.4627450980392157
13,6.60479199886322,0,0.3354118335653519,0.5493522808971385,0.6108855337973705,0.34379669631098125,0.3326161311231222,0.4296114989718651,0.5074946400538182,0.5372549019607843,0.5019607843137255,0.5019607843137255,0.5019607843137255,0.4823529411764706,0.5019607843137255,0.5254901960784314,0.5176470588235295
14,6.6326669454574585,0,0.3785286127764888,0.3598221166279969,0.5776295399845321,0.3468804981658215,0.3276236045376513,0.18972162110383506,0.46540225689726183,0.4823529411764706,0.49019607843137253,0.5098039215686274,0.5019607843137255,0.5098039215686274,0.4745098039215686,0.35294117647058826,0.4470588235294118
15,6.63460099697113,0,0.38606921453982984,0.38312064692962106,0.5352861530085073,0.34563218045154237,0.3277294765527493,0.2192107613159675,0.4118078859465099,0.49411764705882355,0.48627450980392156,0.49411764705882355,0.49411764705882355,0.49411764705882355,0.4980392156862745,0.5686274509803921,0.5098039215686274
16,6.662678956985474,0,0.38867942459396754,0.4412219613549884,0.49569798731631864,0.34353808947974535,0.32919111329631273,0.29275006982245366,0.3617008210920069,0.48627450980392156,0.5137254901960784,0.49411764705882355,0.5058823529411764,0.4980392156862745,0.5058823529411764,0.5058823529411764,0.5137254901960784
17,6.693153977394104,0,0.38171886774942,0.48859241726218094,0.4826952790719258,0.34150973623839853,0.3308951570594855,0.35270724300356465,0.3452431870012581,0.49019607843137253,0.5019607843137255,0.49019607843137253,0.49411764705882355,0.49411764705882355,0.4745098039215686,0.49411764705882355,0.5058823529411764
18,6.694880962371826,0,0.38403905336426913,0.5081689837587007,0.48110015158546016,0.34025642538858436,0.33197416299824695,0.3774854632094873,0.3432242211053136,0.5058823529411764,0.5019607843137255,0.4980392156862745,0.49411764705882355,0.49019607843137253,0.49019607843137253,0.5058823529411764,0.5098039215686274
19,6.723143935203552,0,0.3880993757153906,0.5017401357463264,0.4878673571539056,0.339919715141931,0.33242517657970094,0.3693484177398776,0.3517895284989006,0.5058823529411764,0.4980392156862745,0.49411764705882355,0.4980392156862745,0.49019607843137253,0.49411764705882355,0.5490196078431373,0.5098039215686274
20,6.752647995948792,0,0.3860208784532096,0.48448375585460174,0.4990815925754061,0.34009762989576314,0.3323274765169139,0.347506876681581,0.3659834779212568,0.4980392156862745,0.5058823529411764,0.4980392156862745,0.5019607843137255,0.49019607843137253,0.45098039215686275,0.4980392156862745,0.5019607843137255
21,6.754649996757507,0,0.3835556825986079,0.47703982626450114,0.5133893989172467,0.34037896332482437,0.3321196129737323,0.33808503416319624,0.3840929853399787,0.4980392156862745,0.5019607843137255,0.4980392156862745,0.4980392156862745,0.49411764705882355,0.47843137254901963,0.47843137254901963,0.5019607843137255
22,6.81321394443512,0,0.38374902892498064,0.473414536612529,0.5195765605568445,0.3405391734349653,0.3319357490586656,0.3334964754226843,0.3919241263923612,0.5058823529411764,0.4980392156862745,0.5019607843137255,0.5019607843137255,0.4980392156862745,0.5254901960784314,0.5529411764705883,0.5137254901960784
23,6.815243005752564,0,0.3871809732405259,0.4737045600618716,0.5254253646403713,0.3405626956767215,0.33175268830542504,0.3338635604727604,0.3993270055207665,0.5058823529411764,0.4980392156862745,0.4980392156862745,0.5019607843137255,0.49411764705882355,0.5254901960784314,0.5254901960784314,0.5058823529411764
24,6.842734932899475,0,0.3956883185150812,0.478779965970611,0.5201082703789637,0.3401886691032166,0.3314014848094032,0.3402875432106701,0.3925971158596645,0.4980392156862745,0.5019607843137255,0.5019607843137255,0.4980392156862745,0.5098039215686274,0.5294117647058824,0.5490196078431373,0.4980392156862745
25,6.872702956199646,0,0.3982501914926528,0.4792633377262181,0.5163379724671306,0.33993626578867675,0.3311873225228503,0.34089935079214184,0.3878250189795535,0.4980392156862745,0.49411764705882355,0.5019607843137255,0.4980392156862745,0.5019607843137255,0.49411764705882355,0.47843137254901963,0.4980392156862745
26,6.875239014625549,0,0.39955529453982985,0.47621809398298526,0.5127126818252127,0.3396825343126144,0.33095677122430306,0.33704496089879954,0.38323645898605896,0.49411764705882355,0.5058823529411764,0.4980392156862745,0.4980392156862745,0.5058823529411764,0.5137254901960784,0.5254901960784314,0.5098039215686274
27,6.932788014411926,0,0.3994586203866976,0.47491298994586234,0.5131477135344161,0.3393687298402936,0.33077301381275453,0.335393080052931,0.38378708217573404,0.5019607843137255,0.5019607843137255,0.4980392156862745,0.49411764705882355,0.49019607843137253,0.47843137254901963,0.47058823529411764,0.49019607843137253
28,6.934877991676331,0,0.39747679628770305,0.4776198731631864,0.5156129123588553,0.3390023464604558,0.330681826753358,0.3388192042633484,0.3869073044748894,0.5019607843137255,0.49411764705882355,0.5019607843137255,0.4980392156862745,0.49411764705882355,0.5019607843137255,0.5019607843137255,0.5058823529411764
29,6.962638974189758,0,0.39104794728538284,0.48153518626450115,0.5177397496674401,0.3383839306489184,0.33064445780123863,0.3437748480539364,0.38959925983813726,0.5019607843137255,0.5019607843137255,0.4980392156862745,0.49411764705882355,0.4980392156862745,0.4980392156862745,0.5137254901960784,0.49019607843137253
30,6.992807984352112,0,0.38959783102861567,0.4799883958546017,0.5178847628770301,0.3382220866495083,0.3305669332637678,0.34181706279084073,0.38978280424264916,0.5019607843137255,0.49411764705882355,0.5019607843137255,0.4980392156862745,0.5058823529411764,0.5098039215686274,0.5215686274509804,0.5019607843137255
31,6.994908928871155,0,0.3894044827223511,0.4757830583139984,0.5175463993812839,0.3381532390163235,0.33043691000966424,0.3364943326971941,0.3893545348007764,0.4980392156862745,0.4980392156862745,0.4980392156862745,0.5058823529411764,0.5019607843137255,0.4980392156862745,0.5333333333333333,0.5058823529411764
32,7.082855939865112,0,0.38964616810518177,0.47230278088167055,0.5162412943542151,0.338123664868762,0.3303154070370258,0.33208931710821143,0.38770265270192533,0.5019607843137255,0.4980392156862745,0.4980392156862745,0.5058823529411764,0.5098039215686274,0.5019607843137255,0.5019607843137255,0.4980392156862745
33,7.084967970848084,0,0.38930780856921887,0.4709493407579273,0.5154195640525909,0.3381015334376567,0.3302472585681141,0.3303762568824767,0.3866625819434938,0.4980392156862745,0.5019607843137255,0.4980392156862745,0.4980392156862745,0.4980392156862745,0.5098039215686274,0.5137254901960784,0.5098039215686274
34,7.086619973182678,0,0.38838940015467904,0.47206109549883996,0.5161929592575406,0.3380774385828667,0.3302386418069913,0.3317834139439669,0.3876414745750416,0.5019607843137255,0.4980392156862745,0.49411764705882355,0.4980392156862745,0.5019607843137255,0.4980392156862745,0.5098039215686274,0.5019607843137255
35,7.14383602142334,0,0.3880993757153906,0.474816316782676,0.5164829797370456,0.33810716308833644,0.3302073247606772,0.33527072004021574,0.38800855586616995,0.4980392156862745,0.49411764705882355,0.4980392156862745,0.4980392156862745,0.5019607843137255,0.5058823529411764,0.5137254901960784,0.5019607843137255
36,7.145532965660095,0,0.38882443582366594,0.4752513504717711,0.5153712269760248,0.3381296503664912,0.3301916486957642,0.33582134573585604,0.3866014013106448,0.49411764705882355,0.4980392156862745,0.5019607843137255,0.49411764705882355,0.4980392156862745,0.5019607843137255,0.5058823529411764,0.5058823529411764
37,7.173324942588806,0,0.38959783102861567,0.4781032439288476,0.5124226573859242,0.3381383134879689,0.33029956683139633,0.33943101059183756,0.3828693726830003,0.4980392156862745,0.4980392156862745,0.5019607843137255,0.4980392156862745,0.5058823529411764,0.5019607843137255,0.5098039215686274,0.5019607843137255
38,7.232669949531555,0,0.39003286669760245,0.478779965970611,0.5135344131167827,0.33816160142198487,0.33035338744463855,0.3402875432106701,0.38427653099747316,0.4980392156862745,0.5019607843137255,0.5019607843137255,0.49411764705882355,0.49411764705882355,0.5019607843137255,0.49411764705882355,0.4980392156862745
39,7.234210014343263,0,0.39056457552977575,0.4786832928074246,0.5143078083217324,0.33819031602350447,0.3303823964970617,0.34016518319795486,0.38525542362902093,0.4980392156862745,0.49411764705882355,0.5019607843137255,0.49411764705882355,0.4980392156862745,0.4980392156862745,0.5019607843137255,0.5019607843137255
40,7.262666940689088,0,0.39017787792730085,0.4783932683681361,0.5146945039443156,0.3382138382652607,0.3303905346188433,0.3397980968948962,0.3857448674388297,0.5058823529411764,0.5058823529411764,0.4980392156862745,0.5058823529411764,0.4980392156862745,0.4980392156862745,0.5058823529411764,0.4980392156862745
41,7.264295935630798,0,0.39066124968290794,0.47945668801237434,0.5162412943542151,0.3382291847957582,0.3303982266788306,0.3411440758295027,0.38770265270192533,0.5058823529411764,0.5019607843137255,0.49411764705882355,0.5058823529411764,0.4823529411764706,0.49411764705882355,0.49019607843137253,0.5019607843137255
42,7.266049027442932,0,0.3877610181593194,0.4789733152668214,0.5192382030007734,0.338220514156385,0.33048148862348214,0.34053226699504835,0.3914958644683839,0.49411764705882355,0.4980392156862745,0.49019607843137253,0.48627450980392156,0.4823529411764706,0.4980392156862745,0.49411764705882355,0.5019607843137255
43,7.2951459884643555,0,0.38394237921113694,0.47186774620262956,0.5245552952822892,0.3381222953588148,0.33053602468977095,0.33153869015958864,0.39822575162352086,0.49411764705882355,0.49411764705882355,0.4980392156862745,0.47843137254901963,0.3764705882352941,0.4666666666666667,0.4823529411764706,0.49019607843137253
44,7.323241949081421,0,0.3820088921887084,0.4647621791183295,0.5274555268058778,0.3377638884660073,0.3305980799044526,0.3225451158300941,0.4018965983653339,0.5058823529411764,0.49019607843137253,0.44313725490196076,0.43137254901960786,0.42745098039215684,0.5098039215686274,0.5058823529411764,0.5019607843137255
45,7.383404970169067,0,0.38007540318638827,0.4709010017014695,0.5271171662799691,0.3370231126417546,0.33088960008179474,0.3303150737436626,0.4014683326824089,0.49411764705882355,0.4196078431372549,0.43529411764705883,0.5411764705882353,0.49411764705882355,0.4823529411764706,0.5019607843137255,0.5019607843137255
46,7.385658979415893,0,0.36871616049497297,0.4858371959783449,0.5322892473317865,0.33562937126462405,0.3314691458680958,0.34921993690731573,0.4080146779389991,0.5215686274509804,0.6549019607843137,0.4627450980392157,0.5019607843137255,0.615686274509804,0.49019607843137253,0.4980392156862745,0.5058823529411764
47,7.413938045501709,0,0.3729698351121423,0.5596481039443155,0.5152262137664346,0.3322880727211035,0.32999379648330396,0.4426430063462314,0.38641785690613295,0.5019607843137255,0.45098039215686275,0.4627450980392157,0.403921568627451,0.6352941176470588,0.5098039215686274,0.5058823529411764,0.5058823529411764
48,7.47327995300293,0,0.389791180324826,0.5522041763341067,0.5101508108275329,0.3325942302408095,0.32760797733905844,0.43322116633381186,0.37999387792717093,0.47843137254901963,0.5607843137254902,0.5764705882352941,0.6509803921568628,0.3764705882352941,0.4980392156862745,0.4980392156862745,0.49411764705882355
49,7.476158022880554,0,0.40931940974477954,0.5357695247641144,0.5154678991492653,0.3333269305924089,0.3242342027403481,0.4124196935279817,0.3867237600703775,0.48627450980392156,0.5490196078431373,0.5333333333333333,0.5098039215686274,0.5686274509803921,0.5254901960784314,0.48627450980392156,0.5019607843137255
50,7.503381013870238,0,0.44436387935034805,0.5038669710750193,0.49236272111368906,0.3351637779780044,0.31643475838799784,0.3720403705971602,0.35747934740157106,0.48627450980392156,0.4627450980392157,0.5058823529411764,0.5215686274509804,0.47843137254901963,0.4980392156862745,0.5019607843137255,0.4980392156862745
51,7.50623893737793,0,0.45886503993812844,0.49811484609435425,0.48878576655839134,0.33630232564841533,0.31275577603036825,0.36475985899936564,0.3529519667879429,0.49411764705882355,0.4666666666666667,0.4823529411764706,0.4392156862745098,0.3607843137254902,0.4980392156862745,0.5372549019607843,0.49019607843137253
52,7.533967971801758,0,0.45001933176179426,0.49531128872389796,0.4990815925754061,0.33754176347523235,0.30949053979366137,0.36121137352325045,0.3659834779212568,0.5058823529411764,0.49411764705882355,0.5294117647058824,0.4980392156862745,0.6431372549019608,0.47843137254901963,0.5098039215686274,0.5098039215686274
53,7.594269037246704,0,0.4440738560989946,0.49347447486465584,0.4924593932869296,0.3388334469162032,0.30668361952081685,0.3588865032100787,0.35760170616130377,0.4470588235294118,0.27450980392156865,0.44313725490196076,0.5019607843137255,0.6352941176470588,0.5725490196078431,0.5176470588235295,0.49411764705882355
54,7.596966028213501,0,0.4525812031554524,0.4950212652745553,0.4816801974941995,0.340178800612508,0.3044809776571908,0.36084428847317435,0.3439583899524832,0.49411764705882355,0.5098039215686274,0.5490196078431373,0.4980392156862745,0.5098039215686274,0.4980392156862745,0.4745098039215686,0.49411764705882355
55,7.623394966125487,0,0.47708816334106735,0.5221867706109822,0.4451372745552978,0.34314081632064924,0.3014455559652809,0.39522789059006336,0.2977057137383399,0.5725490196078431,0.6078431372549019,0.4588235294117647,0.4235294117647059,0.16470588235294117,0.4627450980392157,0.49411764705882355,0.5058823529411764
56,7.625914931297302,0,0.4712877002938902,0.5238302391337974,0.44682907659087395,0.3455161254471112,0.3000530575468581,0.39730804213078713,0.29984704140117535,0.45098039215686275,0.4627450980392157,0.5215686274509804,0.45098039215686275,0.4470588235294118,0.45098039215686275,0.5137254901960784,0.4980392156862745
57,7.654068946838379,0,0.4874323254447022,0.5087006925908739,0.452339516782676,0.34830075516006415,0.2984855307452477,0.378158451423808,0.3068216505865149,0.4588235294117647,0.4823529411764706,0.5294117647058824,0.5843137254901961,0.6196078431372549,0.5450980392156862,0.5137254901960784,0.5019607843137255
58,7.713304042816162,0,0.4851604769064192,0.4945378935189482,0.4651005386542924,0.3514058113582118,0.2974531588129093,0.3602324808917026,0.32297338026003647,0.48627450980392156,0.47843137254901963,0.4627450980392157,0.43137254901960786,0.4627450980392157,0.5019607843137255,0.48627450980392156,0.5019607843137255
59,7.715796947479247,0,0.476604792575406,0.4902358818252127,0.4742846069605568,0.35493083473573406,0.2971089695133053,0.3547873895323581,0.33459773057291253,0.4745098039215686,0.47058823529411764,0.4823529411764706,0.5647058823529412,0.7019607843137254,0.611764705882353,0.5450980392156862,0.37254901960784315
60,7.74297297000885,0,0.4556264468986852,0.4781032439288476,0.49323278849187935,0.3621227504420836,0.2984706463147214,0.33943101059183756,0.3585805987928516,0.5058823529411764,0.49019607843137253,0.47843137254901963,0.4588235294117647,0.48627450980392156,0.5019607843137255,0.5019607843137255,0.5843137254901961
61,7.745541930198669,0,0.4476508089713844,0.46911252590873936,0.5031419149265275,0.36551328994755894,0.300213582782115,0.32805138531632233,0.3711226611044265,0.49411764705882355,0.5058823529411764,0.4980392156862745,0.49019607843137253,0.47058823529411764,0.48627450980392156,0.4196078431372549,0.4549019607843137
62,7.773420929908752,0,0.42730084776488786,0.5397331749419954,0.6345707607115235,0.36854342655899536,0.30243923880306584,0.4174365179514187,0.5374732253287419,0.4980392156862745,0.5254901960784314,0.5137254901960784,0.4745098039215686,0.49019607843137253,0.4666666666666667,0.48627450980392156,0.5215686274509804
63,7.803015947341919,0,0.23216356875483377,0.4708043275483372,0.6933004572312452,0.3705636466904909,0.3003669747876101,0.3301927124779648,0.6118078821875623,0.3803921568627451,0.49019607843137253,0.5843137254901961,0.35294117647058826,0.23921568627450981,0.5254901960784314,0.5098039215686274,0.4627450980392157
64,7.80545699596405,0,0.43392304408352667,0.3964617137200309,0.6369392853828306,0.36950775452116835,0.2979120579148591,0.23609665858367612,0.5404710863621994,0.6313725490196078,0.4745098039215686,0.4823529411764706,0.596078431372549,0.5254901960784314,0.4549019607843137,0.49019607843137253,0.5803921568627451
65,7.833624005317688,0,0.4186484892807425,0.5037702989017788,0.5121326329466357,0.3680172565771248,0.2972544545723026,0.3719180118374275,0.38250228637994166,0.5372549019607843,0.5176470588235295,0.48627450980392156,0.4823529411764706,0.403921568627451,0.4392156862745098,0.49411764705882355,0.5058823529411764
66,7.862995028495789,0,0.5000483341067286,0.511359237741686,0.4425270656890951,0.3676440181296554,0.2949985421547817,0.38152339374839384,0.2944019510442169,0.4196078431372549,0.5176470588235295,0.5215686274509804,0.5529411764705883,0.6352941176470588,0.5176470588235295,0.5254901960784314,0.4980392156862745
67,7.865489959716798,0,0.5178847628770301,0.4794083489559165,0.46191028368136117,0.3678348473748198,0.2921306413504045,0.3410828926906886,0.31893544846814736,0.5058823529411764,0.48627450980392156,0.48627450980392156,0.49411764705882355,0.6901960784313725,0.5372549019607843,0.5058823529411764,0.49019607843137253
68,7.922907948493957,0,0.44489558857849965,0.4520011572467131,0.5151295406032482,0.36809283022073674,0.2901575119374782,0.30639338615657247,0.3862954968934177,0.5215686274509804,0.5843137254901961,0.49019607843137253,0.5450980392156862,0.5411764705882353,0.4666666666666667,0.2980392156862745,0.45098039215686275
69,7.925632953643799,0,0.4574149236813612,0.4452822861809745,0.5084590072080434,0.3678150502502394,0.2884674354215917,0.2978892561380797,0.3778525482595634,0.4588235294117647,0.39215686274509803,0.45098039215686275,0.47843137254901963,0.5254901960784314,0.4588235294117647,0.4392156862745098,0.5607843137254902
70,7.953398942947388,0,0.5032869261562258,0.46906418883217327,0.4530645749110595,0.36630176055327707,0.2868997319494392,0.32799020468347345,0.3077393625852138,0.47058823529411764,0.4627450980392157,0.5568627450980392,0.4980392156862745,0.5372549019607843,0.49019607843137253,0.5490196078431373,0.5568627450980392
71,7.982890963554382,0,0.5220417603712297,0.4598317834493426,0.43725831088012374,0.3663116641274975,0.2868843786528358,0.3163046737377485,0.2877332450231219,0.4549019607843137,0.39215686274509803,0.42745098039215684,0.4235294117647059,0.45098039215686275,0.5019607843137255,0.5176470588235295,0.4823529411764706
72,7.985919952392577,0,0.5062354957463264,0.4428654260170147,0.45388630719257544,0.36716151960222315,0.288758022728352,0.29483021647654534,0.30877943584961054,0.4627450980392157,0.4392156862745098,0.47058823529411764,0.5607843137254902,0.5568627450980392,0.5803921568627451,0.21568627450980393,0.396078431372549
73,8.043646931648254,0,0.47708816334106735,0.45548143566898686,0.48617555749419955,0.3682148180976292,0.2920846580178292,0.31079840299853767,0.3496482038432233,0.5215686274509804,0.5686274509803921,0.5294117647058824,0.5333333333333333,0.49411764705882355,0.5450980392156862,0.8313725490196079,0.403921568627451
74,8.045042991638184,0,0.45968677221964427,0.5009667405413766,0.5310324813611755,0.3692318665543493,0.29661957782757137,0.36836952510832977,0.40642397897896204,0.5294117647058824,0.611764705882353,0.5607843137254902,0.48627450980392156,0.5294117647058824,0.47843137254901963,0.5411764705882353,0.6274509803921569
75,8.073503017425537,0,0.3326566063418407,0.4631670496519722,0.5703306196442381,0.3700820340217345,0.2956561115415106,0.32052614742818436,0.4561639537714587,0.5764705882352941,0.0,0.5647058823529412,0.1803921568627451,0.37254901960784315,0.8235294117647058,0.4823529411764706,0.5450980392156862
76,8.102993011474611,0,0.5234435365815931,0.4666473290641918,0.5225251341067285,0.36931523374953656,0.29431000567977,0.3249311655231321,0.395656160031936,0.4823529411764706,0.0784313725490196,0.45098039215686275,0.6,0.4196078431372549,0.5294117647058824,0.5725490196078431,0.5372549019607843
77,8.105476975440979,0,0.5261020856921886,0.49115428924980664,0.4733178624593968,0.36955620735708766,0.2937366884698164,0.35594982531543523,0.3333741141569865,0.5411764705882353,1.0,0.5215686274509804,0.615686274509804,0.39215686274509803,0.3764705882352941,0.47058823529411764,0.4823529411764706
78,8.192685961723328,0,0.4722061067285383,0.4955529741067285,0.485498836442382,0.3694995349555198,0.291985239614748,0.361517276687495,0.34879167247737336,0.5843137254901961,0.6039215686274509,0.5058823529411764,0.5411764705882353,0.5490196078431373,0.4,0.4196078431372549,0.5529411764705883
79,8.222870945930481,0,0.4417053332095901,0.46833913070378963,0.5186098190255221,0.369454207058126,0.289836319754636,0.32707249268477456,0.3907005137353829,0.43529411764705883,0.396078431372549,0.49019607843137253,0.47843137254901963,0.6313725490196078,0.43529411764705883,0.3843137254901961,0.4745098039215686
80,8.254024028778076,0,0.4884474060324826,0.4418503449342614,0.46495552544470226,0.3681234844392722,0.2874808977169029,0.2935454200542617,0.32278983585552457,0.45098039215686275,0.4666666666666667,0.4980392156862745,0.4745098039215686,0.4549019607843137,0.5372549019607843,0.3803921568627451,0.4
81,8.283141016960144,0,0.4863205687238979,0.4536446218097448,0.47491298994586234,0.36901335265933644,0.2909376250241669,0.3084735326853659,0.335393080052931,0.5019607843137255,0.5176470588235295,0.5019607843137255,0.4823529411764706,0.4588235294117647,0.5215686274509804,0.49411764705882355,0.5137254901960784
82,8.285594940185549,0,0.46766240965197214,0.482743615158546,0.4948762530549111,0.3698674732867249,0.29549547842445467,0.3453043663811245,0.360660745321645,0.49411764705882355,0.4117647058823529,0.4588235294117647,0.5254901960784314,0.5098039215686274,0.5294117647058824,0.6235294117647059,0.596078431372549
83,8.372516989707947,0,0.2688998459396752,0.7077532807424595,0.8738882227378191,0.37107026137341675,0.2963216010310543,0.6301009390227262,0.8403792928592397,0.43137254901960786,0.9058823529411765,0.5137254901960784,0.4980392156862745,0.5568627450980392,0.09019607843137255,0.5490196078431373,0.5254901960784314
84,8.374282002449036,0,0.36765274283062643,0.5037219638051045,0.529775712420727,0.370126953446811,0.2923599773811587,0.37185683371054373,0.4048332762599774,0.6352941176470588,0.0,0.5019607843137255,0.5137254901960784,0.6039215686274509,1.0,0.5176470588235295,0.6352941176470588
85,8.402822971343994,0,0.4807134539829853,0.4873356503016241,0.49444122134570767,0.3706554865538055,0.28937747480659276,0.35111654279054505,0.3601101221319699,0.49019607843137253,0.47843137254901963,0.5333333333333333,0.5882352941176471,0.596078431372549,0.5058823529411764,0.5450980392156862,0.5176470588235295
86,8.405578970909119,0,0.4362915668739366,0.4823085814694509,0.5157095845320959,0.37074523268324844,0.28836036576816537,0.3447537406854842,0.3870296632346221,0.4823529411764706,0.4235294117647059,0.5019607843137255,0.5215686274509804,0.4235294117647059,0.6235294117647059,0.6392156862745098,0.4470588235294118
87,8.433655977249147,0,0.4626353408197989,0.4592033994740912,0.4987915681361176,0.37044384025625,0.28605070983341974,0.31550932300474743,0.3656163916181982,0.49411764705882355,0.49411764705882355,0.5019607843137255,0.49411764705882355,0.4823529411764706,0.43137254901960786,0.7803921568627451,0.6352941176470588
88,8.463045001029968,0,0.4884474060324826,0.43783835730363496,0.4815835233410673,0.3697955144978228,0.2837261665486984,0.28846741452184244,0.3438360286867853,0.5098039215686274,0.5058823529411764,0.5019607843137255,0.4549019607843137,0.40784313725490196,0.47843137254901963,0.32941176470588235,0.43529411764705883
89,8.465535998344421,0,0.4894141475638051,0.4290409868770302,0.4584300042691415,0.36929387039674566,0.28254060584463747,0.2773325108755755,0.31453043037319967,0.5098039215686274,0.5019607843137255,0.45098039215686275,0.5019607843137255,0.5568627450980392,0.5764705882352941,0.5019607843137255,0.5294117647058824
90,8.493633031845093,0,0.4941995329930395,0.42406225571539063,0.4531129119876257,0.3692737099072204,0.2824868508876818,0.2710308901551531,0.3078005432180627,0.4549019607843137,0.41568627450980394,0.5333333333333333,0.5725490196078431,0.5686274509803921,0.5764705882352941,0.7372549019607844,0.6
91,8.523026943206787,0,0.4865139180201083,0.4398685197463264,0.4755413729311679,0.3695624384394002,0.2838100343104217,0.29103700771724494,0.33618842953294953,0.5176470588235295,0.5058823529411764,0.47058823529411764,0.396078431372549,0.4117647058823529,0.6392156862745098,0.6627450980392157,0.4588235294117647
92,8.525506019592285,0,0.4794083489559165,0.44634570443928845,0.4729311648569219,0.36988262184597664,0.28634906515597064,0.29923523331851054,0.33288466784121257,0.4470588235294118,0.43529411764705883,0.49411764705882355,0.4392156862745098,0.4549019607843137,0.4117647058823529,0.396078431372549,0.47843137254901963
93,8.553696990013123,0,0.4759764086001547,0.4647621791183295,0.4951662774941995,0.37028116427641444,0.28958396172288614,0.3225451158300941,0.3610278316247037,0.5058823529411764,0.5098039215686274,0.48627450980392156,0.5098039215686274,0.45098039215686275,0.47058823529411764,0.3137254901960784,0.4392156862745098
94,8.58292293548584,0,0.41192961781902554,0.4965680556844548,0.7711233484918795,0.37070075681400116,0.2923446926227018,0.36280207373627,0.7103089516708336,0.5019607843137255,0.5450980392156862,0.5607843137254902,0.4980392156862745,0.44313725490196076,0.48627450980392156,0.4666666666666667,0.5019607843137255
95,8.612949013710022,0,0.2992556052590874,0.520833330487239,0.604601694044857,0.37144377046512095,0.2916870505629839,0.39351483036432855,0.49954113272380746,0.6039215686274509,0.3411764705882353,0.5450980392156862,0.5058823529411764,0.5725490196078431,0.8901960784313725,0.39215686274509803,0.41568627450980394
96,8.615527033805847,0,0.547370448878577,0.48820572064965195,0.6185711467904099,0.37135177523196783,0.28865095783625955,0.3522177979407733,0.5172223832304823,0.48627450980392156,0.6588235294117647,0.5058823529411764,0.5803921568627451,0.5372549019607843,0.30196078431372547,0.4627450980392157,0.5058823529411764
97,8.642953991889954,0,0.4722061067285383,0.44204369373549884,0.5040603213611755,0.3713439002365255,0.28825328596558036,0.29379014321214864,0.37228509563452106,0.47058823529411764,0.5607843137254902,0.47058823529411764,0.5098039215686274,0.5058823529411764,0.41568627450980394,0.4196078431372549,0.49019607843137253
98,8.645447015762329,0,0.5048820516627996,0.45403131941221964,0.5099574605413767,0.3716121638044159,0.28703731231730734,0.30896297900113984,0.3797491528898101,0.5058823529411764,0.45098039215686275,0.44313725490196076,0.4470588235294118,0.5333333333333333,0.5450980392156862,0.45098039215686275,0.49411764705882355
99,8.673560976982117,0,0.44682907659087395,0.4874323254447022,0.500725055158546,0.37171753963841686,0.28764149875760514,0.35123890530922547,0.3680636219440852,0.47843137254901963,0.43137254901960786,0.5058823529411764,0.49411764705882355,0.47058823529411764,0.43137254901960786,0.4117647058823529,0.5176470588235295
100,8.703050017356873,0,0.42991105643310135,0.4917343331786543,0.5087490276875483,0.3717363130762389,0.2877102758478714,0.3566839916566397,0.37821962955069177,0.49411764705882355,0.5254901960784314,0.49019607843137253,0.5098039215686274,0.48627450980392156,0.3411764705882353,0.4549019607843137,0.5058823529411764
101,8.705577969551086,0,0.46761407257540605,0.4592033994740912,0.4988882412993039,0.37145333072211767,0.28580598203949725,0.31550932300474743,0.36573875163091346,0.4745098039215686,0.5019607843137255,0.47843137254901963,0.49411764705882355,0.44313725490196076,0.49019607843137253,0.5411764705882353,0.4980392156862745
102,8.733534932136536,0,0.4768948150348028,0.4470707625676721,0.4854021622892498,0.37073373531520093,0.2841923433493001,0.3001529453172095,0.3486693112116755,0.4549019607843137,0.4235294117647059,0.4980392156862745,0.47843137254901963,0.4470588235294118,0.5450980392156862,0.7529411764705882,0.5450980392156862
103,8.762953996658325,0,0.48148684918793505,0.4391917988924981,0.4594450858468678,0.3701118111524721,0.28324419991236643,0.2901804766019915,0.3158152274219746,0.5725490196078431,0.596078431372549,0.5215686274509804,0.5843137254901961,0.5254901960784314,0.40784313725490196,0.2549019607843137,0.45098039215686275
104,8.79253101348877,0,0.4850154646867749,0.42768754536736275,0.46224864321732406,0.36992927665191033,0.28333590069461595,0.27561944889566503,0.3193637128980898,0.5333333333333333,0.6274509803921569,0.49019607843137253,0.48627450980392156,0.47058823529411764,0.3686274509803922,0.28627450980392155,0.3176470588235294
105,8.794257998466492,0,0.4757830583139984,0.44421886772467134,0.47815158298530547,0.36988166957922464,0.28481196741192816,0.2965432787070523,0.33949219373065165,0.4666666666666667,0.4470588235294118,0.5176470588235295,0.5529411764705883,0.5764705882352941,0.6705882352941176,0.807843137254902,0.6392156862745098
106,8.822867035865784,0,0.47529968754833724,0.4476024717958237,0.4733178624593968,0.3700368439524233,0.2873508623088685,0.3008259340327232,0.3333741141569865,0.5098039215686274,0.5294117647058824,0.4980392156862745,0.4627450980392157,0.5294117647058824,0.5137254901960784,0.5254901960784314,0.49019607843137253
107,8.825148940086365,0,0.47500966310904874,0.4672757110595514,0.4910576160866203,0.3702789527621813,0.29070810580736123,0.32572651375016803,0.35582746530271997,0.4745098039215686,0.45098039215686275,0.4980392156862745,0.4666666666666667,0.47058823529411764,0.47058823529411764,0.4627450980392157,0.49019607843137253
108,8.85368299484253,0,0.4124129905645785,0.5389114406805877,0.8068445351894818,0.37048555705788166,0.29297173258795906,0.4163964421810567,0.7555215496086497,0.47058823529411764,0.403921568627451,0.44313725490196076,0.4745098039215686,0.4627450980392157,0.24313725490196078,0.4627450980392157,0.4980392156862745
109,8.883036971092224,0,0.3193155415313225,0.5698955879350348,0.6082753237432328,0.37100737919024,0.29140407510026684,0.4556133305817836,0.5041908758561159,0.5333333333333333,0.4745098039215686,0.5137254901960784,0.5058823529411764,0.4627450980392157,0.7450980392156863,0.5803921568627451,0.5607843137254902
110,8.885396957397461,0,0.5148878542304718,0.4554330976024749,0.6224381228151586,0.3712354633661101,0.28840624511571733,0.3107372211127062,0.5221168463882214,0.5019607843137255,0.6274509803921569,0.5647058823529412,0.3607843137254902,0.4549019607843137,0.5725490196078431,0.4470588235294118,0.49411764705882355
111,8.913594007492064,0,0.4736562229853055,0.4502126804640371,0.5232501902552205,0.37096019938461017,0.2880927004117426,0.30412969647624966,0.3965738695246698,0.49019607843137253,0.43529411764705883,0.4745098039215686,0.6,0.6627450980392157,0.3254901960784314,0.5529411764705883,0.5019607843137255
112,8.942911982536316,0,0.5047853794895591,0.4562548308739366,0.497583137262181,0.3711549128757366,0.28714434471956185,0.3117772956300855,0.3640868707850449,0.49019607843137253,0.5176470588235295,0.4980392156862745,0.5019607843137255,0.5607843137254902,0.5568627450980392,0.3686274509803922,0.4745098039215686
113,8.945482969284056,0,0.45146944742459394,0.4870456268522815,0.49477957890177876,0.3714057048546935,0.2877179487372254,0.350749457740469,0.3605383840559472,0.49019607843137253,0.49411764705882355,0.4980392156862745,0.5137254901960784,0.5137254901960784,0.5137254901960784,0.5647058823529412,0.5058823529411764
114,8.973592996597288,0,0.4374033225058005,0.49579466047950504,0.5092807375096675,0.3715434001210632,0.28728968205191435,0.36182318110472217,0.3788926190179949,0.47058823529411764,0.4745098039215686,0.5019607843137255,0.5019607843137255,0.4117647058823529,0.44313725490196076,0.4627450980392157,0.4823529411764706
115,9.002980947494509,0,0.4656322474864656,0.4709493407579273,0.5026585441608662,0.37133423974092333,0.2852861252102975,0.3303762568824767,0.3705108547759373,0.5058823529411764,0.49019607843137253,0.5098039215686274,0.5137254901960784,0.5294117647058824,0.5176470588235295,0.7411764705882353,0.5490196078431373
116,9.005439996719359,0,0.47143271152358857,0.43658159012529,0.4948762530549111,0.37081777285606227,0.2830604901141555,0.2868767140331667,0.360660745321645,0.47058823529411764,0.4627450980392157,0.4823529411764706,0.4980392156862745,0.40784313725490196,0.42745098039215684,0.34901960784313724,0.5098039215686274
117,9.033568024635317,0,0.47471964064965194,0.4274458589945862,0.4754930358546017,0.3704111361582327,0.2819593339495502,0.27531354447843787,0.3361272489001006,0.4745098039215686,0.4549019607843137,0.5137254901960784,0.4823529411764706,0.5490196078431373,0.47058823529411764,0.39215686274509803,0.45098039215686275
118,9.063079953193665,0,0.47848994252126836,0.4238205693426141,0.46104021333333334,0.37021111127399886,0.2821888583035844,0.27072498573792597,0.3178341933179191,0.5607843137254902,0.6,0.5137254901960784,0.5411764705882353,0.5294117647058824,0.47058823529411764,0.32941176470588235,0.40784313725490196
119,9.065564036369324,0,0.47442961819025525,0.4280742429698376,0.4737045600618716,0.37015778934781884,0.2836801000180805,0.27610889521143894,0.3338635604727604,0.5568627450980392,0.6274509803921569,0.5372549019607843,0.4980392156862745,0.49411764705882355,0.5490196078431373,0.6862745098039216,0.5215686274509804
120,9.093655943870543,0,0.46437548052590877,0.4455239721577726,0.48047176860015467,0.3699422011671032,0.28627264211547565,0.29819516005411384,0.34242887162529506,0.4823529411764706,0.4549019607843137,0.49019607843137253,0.4627450980392157,0.43529411764705883,0.4980392156862745,0.4627450980392157,0.5529411764705883
121,9.122949957847595,0,0.4586233535653519,0.4666473290641918,0.495456301933488,0.3696918727916965,0.28934688455281743,0.3249311655231321,0.36139491792776235,0.49019607843137253,0.4745098039215686,0.4980392156862745,0.49019607843137253,0.4549019607843137,0.4627450980392157,0.4980392156862745,0.5098039215686274
122,9.125376939773561,0,0.42560904612529005,0.4898008501160093,0.634184068058778,0.36934553086804006,0.29209226161724716,0.354236766342683,0.5369837852778808,0.5058823529411764,0.5490196078431373,0.5137254901960784,0.49019607843137253,0.5215686274509804,0.4549019607843137,0.49019607843137253,0.47843137254901963
123,9.153576016426086,0,0.3412122926527456,0.5732791931941221,0.655404102088167,0.37014357426058053,0.29257416623094196,0.45989598741103355,0.5638421557715447,0.47058823529411764,0.4549019607843137,0.48627450980392156,0.5607843137254902,0.5686274509803921,0.8941176470588236,0.4980392156862745,0.4980392156862745
124,9.182934999465944,0,0.49937161305491107,0.4642788063727765,0.6121906388244392,0.3700827519807462,0.28992046041596264,0.32193330699563977,0.5091465221526692,0.5372549019607843,0.4549019607843137,0.47843137254901963,0.5450980392156862,0.5686274509803921,0.5294117647058824,0.5450980392156862,0.5490196078431373
125,9.185552954673767,0,0.4598317834493426,0.4795050240989946,0.5268754808971384,0.36966804858114133,0.2902569260804187,0.341205255209369,0.40116242951816433,0.49411764705882355,0.48627450980392156,0.5450980392156862,0.5529411764705883,0.5686274509803921,0.18823529411764706,0.5019607843137255,0.4980392156862745
126,9.2136310338974,0,0.5044953590100542,0.4672757110595514,0.5105858425367362,0.36994964388355933,0.28907156844724263,0.32572651375016803,0.380544501116846,0.5137254901960784,0.6,0.5607843137254902,0.49019607843137253,0.41568627450980394,0.611764705882353,0.5568627450980392,0.5137254901960784
127,9.243059992790222,0,0.447022425491106,0.4801334070843,0.5102958180974477,0.37026613475050674,0.2893392408328976,0.34200060468938753,0.3801774148137874,0.49019607843137253,0.4745098039215686,0.4392156862745098,0.4627450980392157,0.41568627450980394,0.4470588235294118,0.4980392156862745,0.49019607843137253
128,9.245419025421144,0,0.43078112618716163,0.5023201806651199,0.5191415288476411,0.3702570556388163,0.28928570076245247,0.3700825853340646,0.3913735032026861,0.5098039215686274,0.5215686274509804,0.5019607843137255,0.48627450980392156,0.5294117647058824,0.39215686274509803,0.37254901960784315,0.43529411764705883
129,9.273551940917967,0,0.4616685973085847,0.48472544123743233,0.512616003712297,0.37022519980999774,0.2873891528296669,0.34781277984582554,0.3831140927084309,0.48627450980392156,0.48627450980392156,0.48627450980392156,0.43137254901960786,0.40784313725490196,0.49411764705882355,0.592156862745098,0.49019607843137253
130,9.303059935569763,0,0.4688708405259087,0.45151778450116004,0.5025618660479505,0.3700135334647211,0.28515601449801076,0.30578157732211814,0.3703884884983092,0.5294117647058824,0.5215686274509804,0.4980392156862745,0.4823529411764706,0.43529411764705883,0.4235294117647059,0.36470588235294116,0.5098039215686274
131,9.30564796924591,0,0.4718194091260634,0.435228148516628,0.4916859980819799,0.36990342135661175,0.2837261124198514,0.285163651927958,0.35662281352975594,0.43137254901960786,0.403921568627451,0.4745098039215686,0.5019607843137255,0.5411764705882353,0.47058823529411764,0.49019607843137253,0.5058823529411764
132,9.333631992340088,0,0.46804910626450114,0.4377416829129157,0.47824825713843777,0.3699745155875417,0.2836189023446687,0.2883450529554288,0.33961455499634946,0.48627450980392156,0.5019607843137255,0.4745098039215686,0.5254901960784314,0.6941176470588235,0.5294117647058824,0.5843137254901961,0.47058823529411764
133,9.362954020500183,0,0.47036929187935034,0.4341163928847641,0.45891337701469453,0.3700880019777077,0.28436077903940593,0.2837564937387835,0.31514223920765394,0.41568627450980394,0.38823529411764707,0.47843137254901963,0.5725490196078431,0.5450980392156862,0.4235294117647059,0.15294117647058825,0.3686274509803922
134,9.365607976913454,0,0.4654388981902552,0.4383700665119876,0.46442381760247486,0.37008910084342017,0.2858825682183227,0.2891404032122965,0.3221168488941865,0.4627450980392157,0.4980392156862745,0.5215686274509804,0.4745098039215686,0.4588235294117647,0.40784313725490196,0.3215686274509804,0.6627450980392157
135,9.393859028816225,0,0.460895202103635,0.45209783139984533,0.46906418883217327,0.3700415564198629,0.2881156518823495,0.3065157474222703,0.32799020468347345,0.5372549019607843,0.5215686274509804,0.5058823529411764,0.48627450980392156,0.47843137254901963,0.4823529411764706,0.5843137254901961,0.5568627450980392
136,9.422878980636595,0,0.46113688847641143,0.449535959808198,0.46940255034802786,0.3700665308684159,0.2908228567075352,0.30327316561159273,0.32841847161938104,0.5294117647058824,0.5333333333333333,0.4980392156862745,0.49019607843137253,0.4392156862745098,0.5254901960784314,0.6431372549019608,0.4980392156862745
137,9.425429940223694,0,0.45736658660479507,0.43953015931941225,0.4904775672080433,0.37001874086027525,0.29400410790335046,0.29060874215961824,0.35509329269660267,0.5019607843137255,0.4823529411764706,0.4980392156862745,0.4745098039215686,0.4549019607843137,0.6274509803921569,0.9568627450980393,0.5372549019607843
138,9.453487038612367,0,0.34696442258314,0.6368426171693735,0.6774458604795051,0.37049407232741643,0.2955795594438111,0.540348732614397,0.5917405895057448,0.4392156862745098,0.47058823529411764,0.5058823529411764,0.4470588235294118,0.4627450980392157,0.803921568627451,0.4823529411764706,0.4392156862745098
139,9.483045935630797,0,0.4291376612281516,0.4478924948491879,0.6209880105181748,0.3696447806948465,0.2939888612355636,0.3011930185816062,0.5202814274027538,0.5686274509803921,0.5019607843137255,0.4666666666666667,0.49411764705882355,0.4980392156862745,0.30980392156862746,0.26666666666666666,0.4196078431372549
140,9.4855979681015,0,0.4126546759474091,0.5233468644083527,0.5527358861562259,0.3691491258504463,0.29540374919950074,0.3966962307903676,0.4338941558011151,0.5137254901960784,0.48627450980392156,0.5019607843137255,0.49411764705882355,0.5019607843137255,0.5176470588235295,0.6196078431372549,0.5411764705882353
141,9.513569951057434,0,0.4738979083681361,0.45591647034802785,0.5232018511987626,0.36933396583893385,0.2945320195309911,0.3113490299471605,0.3965126863858558,0.5098039215686274,0.5333333333333333,0.49019607843137253,0.4823529411764706,0.47058823529411764,0.4196078431372549,0.4588235294117647,0.49411764705882355
142,9.543063998222351,0,0.4635054111678268,0.45146944742459394,0.4976314743387471,0.3694024538661215,0.2947461294428726,0.30572039668926926,0.3641480514178939,0.48627450980392156,0.4980392156862745,0.49019607843137253,0.42745098039215684,0.45098039215686275,0.4549019607843137,0.4549019607843137,0.4745098039215686
143,9.545823931694029,0,0.43720997370456305,0.4498743199381284,0.49564964825986085,0.3689488315749602,0.2956254063265847,0.3037014307933247,0.3616396379531928,0.5137254901960784,0.5137254901960784,0.4980392156862745,0.5215686274509804,0.5058823529411764,0.5450980392156862,0.5098039215686274,0.5254901960784314
144,9.573657035827637,0,0.43571152047022427,0.46722737497293115,0.5048820516627996,0.3681903937084237,0.2968412108973899,0.3256653343703017,0.37332516639295266,0.5176470588235295,0.5137254901960784,0.48627450980392156,0.5137254901960784,0.47058823529411764,0.5058823529411764,0.5372549019607843,0.5058823529411764
145,9.603101015090944,0,0.4235788829698376,0.4715777227532869,0.5123743183294663,0.36722906288055435,0.29840917524051314,0.3311716051095126,0.3828081895441862,0.5019607843137255,0.5058823529411764,0.5176470588235295,0.5490196078431373,0.5137254901960784,0.42745098039215684,0.4980392156862745,0.4980392156862745
146,9.605507016181946,0,0.42947602165506576,0.46703402567672087,0.5161446221809746,0.366344086304437,0.3003213649691384,0.3254206105859235,0.3875802939421926,0.4980392156862745,0.49411764705882355,0.49411764705882355,0.4980392156862745,0.5372549019607843,0.48627450980392156,0.48627450980392156,0.4980392156862745
147,9.633500933647156,0,0.42483565092034037,0.47848994252126836,0.5115042509512762,0.36543553611427804,0.30331191046387046,0.339920458160594,0.38170693815290574,0.47843137254901963,0.4823529411764706,0.5725490196078431,0.5607843137254902,0.5058823529411764,0.49019607843137253,0.4745098039215686,0.4823529411764706
148,9.663017034530641,0,0.421983755483372,0.4927494167362722,0.513727762412993,0.3644702634032485,0.30682189241215063,0.3579687912113798,0.3845212547818514,0.5176470588235295,0.5176470588235295,0.4980392156862745,0.47843137254901963,0.49019607843137253,0.49019607843137253,0.5254901960784314,0.5176470588235295
149,9.66541302204132,0,0.4232888605104409,0.5153712269760248,0.5241685966898685,0.3633605055133113,0.31066843988759746,0.3866014013106448,0.3977363040547644,0.5019607843137255,0.5098039215686274,0.5137254901960784,0.5058823529411764,0.4980392156862745,0.5058823529411764,0.5215686274509804,0.5019607843137255
150,9.693482041358948,0,0.43116782378963653,0.5299207226604795,0.5281805859242072,0.3620966796337833,0.31404800827770407,0.4050168169055416,0.4028143116170153,0.4980392156862745,0.49411764705882355,0.48627450980392156,0.48627450980392156,0.5294117647058824,0.5058823529411764,0.5058823529411764,0.49019607843137253
151,9.722883939743044,0,0.44624903028615626,0.5191415288476411,0.5270688272235112,0.3608058782925406,0.3164346180539502,0.3913735032026861,0.40140714954359485,0.5254901960784314,0.5137254901960784,0.5176470588235295,0.42745098039215684,0.45098039215686275,0.5215686274509804,0.4980392156862745,0.5019607843137255
152,9.725387930870056,0,0.4553364234493426,0.5033836003093581,0.5231535161020882,0.35929830846100286,0.31823903073278054,0.37142856426867105,0.396451508258972,0.5058823529411764,0.5019607843137255,0.48627450980392156,0.5098039215686274,0.5607843137254902,0.4823529411764706,0.5647058823529412,0.5176470588235295
153,9.753512024879457,0,0.45335459836040215,0.4919276844547564,0.5177397496674401,0.35737970270983793,0.3197995278009893,0.35692871794698305,0.38959925983813726,0.48627450980392156,0.49411764705882355,0.49019607843137253,0.5294117647058824,0.5294117647058824,0.49019607843137253,0.47843137254901963,0.5019607843137255
154,9.782940030097961,0,0.45586813327146175,0.4858371959783449,0.502126834338747,0.3550179508547659,0.3212991123746187,0.34921993690731573,0.36983786530863405,0.5019607843137255,0.5019607843137255,0.5058823529411764,0.5686274509803921,0.6078431372549019,0.47843137254901963,0.4627450980392157,0.48627450980392156
155,9.785470962524414,0,0.44808584374941995,0.4875773366744007,0.4952629516473318,0.3521872289250525,0.32308810459698006,0.35142244720777227,0.3611501928904015,0.5019607843137255,0.5019607843137255,0.47058823529411764,0.3058823529411765,0.45098039215686275,0.5019607843137255,0.4745098039215686,0.4666666666666667
156,9.813621997833252,0,0.4441221933735499,0.5228151555761794,0.4685324790100541,0.3488976823205538,0.32537408358421177,0.396023242576047,0.3273172152161702,0.49019607843137253,0.4470588235294118,0.4745098039215686,0.48627450980392156,0.6078431372549019,0.5647058823529412,0.6509803921568628,0.5254901960784314
157,9.843134045600893,0,0.4477958206960557,0.5667053290023202,0.4427687518638825,0.34623658541200014,0.32749258015047567,0.45157539377796424,0.2947078552108475,0.49019607843137253,0.5411764705882353,0.5647058823529412,0.5764705882352941,0.2627450980392157,0.41568627450980394,0.5450980392156862,0.5450980392156862
158,9.845649957656859,0,0.4628286901160093,0.6110788801237432,0.4198569181747874,0.3449584592424192,0.32895254040336264,0.5077393600792487,0.26570816006150644,0.49411764705882355,0.5725490196078431,0.4745098039215686,0.5019607843137255,0.5529411764705883,0.3254901960784314,0.4,0.45098039215686275
159,9.873612999916077,0,0.45867169064191804,0.6270301549883991,0.4288476381747873,0.34514944385742213,0.329518302128429,0.5279290190386943,0.27708778784298677,0.5058823529411764,0.396078431372549,0.47843137254901963,0.6352941176470588,0.27450980392156865,0.6313725490196078,0.5529411764705883,0.5137254901960784
160,9.902902960777283,0,0.45209783139984533,0.6102571458623356,0.4472157741933488,0.3468722234689399,0.3289768131816773,0.5066992843088867,0.30033648771694926,0.4980392156862745,0.5058823529411764,0.4627450980392157,0.45098039215686275,0.49411764705882355,0.5882352941176471,0.49411764705882355,0.5215686274509804
161,9.905508041381836,0,0.4392401361175561,0.5810131452436195,0.4615719221655065,0.34937396605444687,0.32773087738726076,0.4696849137265118,0.31850718153223984,0.49411764705882355,0.44313725490196076,0.4196078431372549,0.3803921568627451,0.4745098039215686,0.5686274509803921,0.41568627450980394,0.4666666666666667
162,9.933688044548036,0,0.4415603217819026,0.5537509667440061,0.4668890144470224,0.3518806078017962,0.3265596845090131,0.4351789515969075,0.32523706868737673,0.49411764705882355,0.5372549019607843,0.5333333333333333,0.5803921568627451,0.615686274509804,0.4627450980392157,0.4470588235294118,0.48627450980392156
163,9.962998986244203,0,0.46123356262954374,0.553267595978345,0.46147524801237433,0.3543742636378069,0.3254434687469185,0.43456714526841833,0.31838482026654197,0.5058823529411764,0.5058823529411764,0.5137254901960784,0.4627450980392157,0.4392156862745098,0.44313725490196076,0.4745098039215686,0.47843137254901963
164,9.965580940246582,0,0.4526295412219644,0.48061677982985307,0.35721190657385926,0.35695779340748235,0.3231179218231598,0.34261241352384186,0.18641785690613294,0.5058823529411764,0.5294117647058824,0.5019607843137255,0.5137254901960784,0.5019607843137255,0.8627450980392157,0.4745098039215686,0.5254901960784314
165,9.994099020957947,0,0.36712103300850735,0.3610788825986079,0.5104408322969838,0.3579382898567177,0.32049559971316727,0.19131232006387205,0.3803609604712819,0.6941176470588235,0.49411764705882355,0.5058823529411764,0.4980392156862745,0.5333333333333333,0.34901960784313724,0.5137254901960784,0.48627450980392156
166,10.022894024848938,0,0.32671113008507346,0.4550464009899459,0.489075790007734,0.35737815652934857,0.3205253304835498,0.3102477760499148,0.3533190518380189,0.0,0.4117647058823529,0.5137254901960784,0.5215686274509804,0.44313725490196076,0.4196078431372549,0.5215686274509804,0.5882352941176471
167,10.025470972061155,0,0.43010440513534415,0.482743615158546,0.5050270658623357,0.35727156029032614,0.3204643703756329,0.3453043663811245,0.3735087120504471,0.615686274509804,0.5372549019607843,0.5137254901960784,0.4823529411764706,0.6627450980392157,0.44313725490196076,0.47058823529411764,0.5254901960784314
168,10.053668022155762,0,0.49289443093580826,0.5232018511987626,0.4578982954369683,0.35530409448390715,0.3227575464947374,0.3965126863858558,0.31385744215887895,0.5803921568627451,0.5725490196078431,0.49411764705882355,0.4627450980392157,0.5019607843137255,0.4235294117647059,0.5019607843137255,0.48627450980392156
169,10.082963943481444,0,0.4668890144470224,0.5874903313225058,0.4412219613549884,0.3540222494620633,0.32428856088311214,0.47788314108195296,0.29275006982245366,0.4980392156862745,0.4980392156862745,0.5176470588235295,0.5490196078431373,0.6392156862745098,0.47843137254901963,0.41568627450980394,0.45098039215686275
170,10.085664987564089,0,0.4692575371384377,0.5540893203402939,0.4476024717958237,0.3535485531371739,0.32370759045563086,0.43560720850895446,0.3008259340327232,0.5215686274509804,0.42745098039215684,0.47843137254901963,0.39215686274509803,0.36470588235294116,0.48627450980392156,0.5529411764705883,0.47843137254901963
171,10.113517999649046,0,0.4635054111678268,0.5110692133023975,0.4636987594740913,0.35327980466502956,0.32249105840314646,0.38115630744533524,0.3211991368954876,0.5294117647058824,0.5058823529411764,0.5254901960784314,0.4823529411764706,0.48627450980392156,0.4823529411764706,0.5215686274509804,0.48627450980392156
172,10.143072009086607,0,0.4544663540912606,0.5321442351121423,0.4753963617014694,0.35259430667274616,0.322148365164729,0.40783113478746974,0.3360048876344027,0.48627450980392156,0.4823529411764706,0.5098039215686274,0.5254901960784314,0.6509803921568628,0.5137254901960784,0.611764705882353,0.4823529411764706
173,10.171888947486877,0,0.4627803530394432,0.5684938047950503,0.4719160822892498,0.3518207653543303,0.32261429049172924,0.4538390822053045,0.33159986953945497,0.5490196078431373,0.5607843137254902,0.5019607843137255,0.5019607843137255,0.34901960784313724,0.3333333333333333,0.4117647058823529,0.5137254901960784
174,10.17426896095276,0,0.47515467631863884,0.5869586215003867,0.460895202103635,0.35158981560732633,0.3230111376367521,0.47721015161464975,0.31765065141937243,0.5058823529411764,0.45098039215686275,0.403921568627451,0.5490196078431373,0.44313725490196076,0.611764705882353,0.4980392156862745,0.5725490196078431
175,10.202926993370056,0,0.4799883958546017,0.5902938877030162,0.4451372745552978,0.3522261177450274,0.32314963731793067,0.4814316253050856,0.2977057137383399,0.5372549019607843,0.6039215686274509,0.5137254901960784,0.5098039215686274,0.47843137254901963,0.4980392156862745,0.5607843137254902,0.5137254901960784
176,10.20559096336365,0,0.48574052281515856,0.5775328618716163,0.44436387935034805,0.3540841154763771,0.3226676324656304,0.4652798906196337,0.2967268211067921,0.49019607843137253,0.4588235294117647,0.5254901960784314,0.5372549019607843,0.5372549019607843,0.5058823529411764,0.4235294117647059,0.4823529411764706
177,10.233546972274778,0,0.48506380077339517,0.5455819730858469,0.45852667842227385,0.3569588333830141,0.3216042286658104,0.42483938956192846,0.3146527916388974,0.47843137254901963,0.5058823529411764,0.49411764705882355,0.4823529411764706,0.5019607843137255,0.4980392156862745,0.5058823529411764,0.4666666666666667
178,10.262977957725523,0,0.46703402567672087,0.38307231183294665,0.4904775672080433,0.36050652822712864,0.31924081284988753,0.2191495831890837,0.35509329269660267,0.43529411764705883,0.43529411764705883,0.49019607843137253,0.49019607843137253,0.5254901960784314,0.8862745098039215,0.5019607843137255,0.48627450980392156
179,10.291980028152468,0,0.29171499953596286,0.4811484886620263,0.5298240494972931,0.3605060683825261,0.3197682934515247,0.34328540173816247,0.40489445689282627,0.8627450980392157,0.7843137254901961,0.5058823529411764,0.49411764705882355,0.5333333333333333,0.23529411764705882,0.4980392156862745,0.48627450980392156
180,10.29417097568512,0,0.3655742425986079,0.47766821023975253,0.5502706833720031,0.36020068019411705,0.31984498726155275,0.33888038489619726,0.4307739284900295,0.43529411764705883,0.4588235294117647,0.49019607843137253,0.5058823529411764,0.6588235294117647,0.4235294117647059,0.4745098039215686,0.4980392156862745
181,10.322932958602903,0,0.4763631071925754,0.5320958980355762,0.507395588553751,0.35920137146460007,0.3200525801604996,0.40776995415462086,0.37650657057793946,0.43529411764705883,0.4117647058823529,0.47058823529411764,0.45098039215686275,0.4588235294117647,0.4196078431372549,0.5058823529411764,0.48627450980392156
182,10.352252960205078,0,0.4789733152668214,0.5541859984532096,0.4654388981902552,0.35709079750711603,0.32193402370166885,0.43572957478658264,0.32340164468997895,0.4549019607843137,0.5372549019607843,0.5294117647058824,0.5333333333333333,0.6274509803921569,0.4392156862745098,0.5058823529411764,0.5019607843137255
183,10.354472041130066,0,0.4440255188244393,0.5905839121423047,0.4478441577726218,0.3557572168350237,0.3228197069599548,0.48179871160814425,0.3011318379487573,0.44313725490196076,0.4823529411764706,0.5176470588235295,0.5176470588235295,0.5176470588235295,0.6274509803921569,0.3843137254901961,0.4588235294117647
184,10.38284397125244,0,0.46186194561484917,0.5415216507347255,0.45731824952822897,0.3552604731487715,0.32160393296192424,0.4197002063787588,0.31312327331170936,0.5098039215686274,0.4980392156862745,0.48627450980392156,0.4627450980392157,0.3803921568627451,0.4666666666666667,0.47843137254901963,0.5137254901960784
185,10.41202700138092,0,0.46833913070378963,0.5101508108275329,0.4776198731631864,0.3545417297700013,0.3200133141927716,0.37999387792717093,0.3388192042633484,0.48627450980392156,0.4117647058823529,0.4980392156862745,0.5254901960784314,0.42745098039215684,0.5764705882352941,0.5803921568627451,0.5686274509803921
186,10.414821028709412,0,0.46974090988399075,0.5339327118948183,0.4722061067285383,0.3533937646826064,0.3194087663923011,0.4100948244677925,0.3319669558425136,0.4823529411764706,0.5176470588235295,0.4980392156862745,0.5058823529411764,0.6392156862745098,0.4666666666666667,0.45098039215686275,0.4745098039215686
187,10.443307042121887,0,0.48506380077339517,0.5618716114462491,0.45383797011600924,0.3524443046115898,0.31955349464982713,0.4454573179632468,0.3087182552167616,0.43529411764705883,0.3843137254901961,0.5176470588235295,0.5529411764705883,0.4235294117647059,0.5333333333333333,0.5882352941176471,0.5333333333333333
188,10.4718279838562,0,0.49564964825986085,0.567913765815932,0.443010437741686,0.352280183942853,0.3197313818380428,0.4531049221290128,0.2950137590015834,0.45098039215686275,0.3568627450980392,0.4666666666666667,0.4196078431372549,0.43529411764705883,0.49019607843137253,0.5529411764705883,0.5215686274509804
189,10.474408030509947,0,0.4898491852126837,0.5672853778808972,0.4387567641144625,0.3529752822875753,0.32002923584226806,0.45230956638408154,0.2896298495280704,0.4823529411764706,0.611764705882353,0.5529411764705883,0.5058823529411764,0.5254901960784314,0.5058823529411764,0.4980392156862745,0.4823529411764706
190,10.50295603275299,0,0.485112139829853,0.5686871610208817,0.4411252869048724,0.35464736873034153,0.3201426420415497,0.45408381476056064,0.29262770818086103,0.5019607843137255,0.48627450980392156,0.4980392156862745,0.5254901960784314,0.41568627450980394,0.47843137254901963,0.4549019607843137,0.4588235294117647
191,10.531846046447754,0,0.48767401082753287,0.549642305336427,0.4536929588863109,0.3573189781626439,0.31998327268271215,0.4299785852749239,0.30853471331821486,0.5294117647058824,0.5529411764705883,0.5098039215686274,0.5254901960784314,0.5058823529411764,0.47843137254901963,0.4980392156862745,0.49019607843137253
192,10.53459894657135,0,0.4662122933952049,0.5079272973859242,0.4426720773147719,0.36024192838026825,0.3196703954174919,0.37717955879226017,0.2945854934439567,0.4823529411764706,0.48627450980392156,0.4823529411764706,0.4745098039215686,0.4666666666666667,0.6980392156862745,0.5098039215686274,0.5058823529411764
193,10.562912940979004,0,0.3187838317092034,0.40704756120649654,0.5744876201082753,0.36171441219392614,0.31788704913458377,0.24949525226110103,0.4614255032322565,0.17254901960784313,0.09803921568627451,0.4980392156862745,0.5098039215686274,0.4666666666666667,0.30980392156862746,0.5137254901960784,0.42745098039215684
194,10.592007994651793,0,0.317092034029389,0.4690158517556071,0.5127126818252127,0.3612422846032124,0.3174901781828921,0.3279290240506246,0.38323645898605896,0.44313725490196076,0.3333333333333333,0.4980392156862745,0.5058823529411764,0.40784313725490196,0.42745098039215684,0.5294117647058824,0.5725490196078431
195,10.594290018081663,0,0.42841260349574634,0.49729311381283836,0.5282289220108276,0.3612189866453359,0.3167176317326356,0.3637197857349689,0.40287549099688175,0.5568627450980392,0.7333333333333333,0.4745098039215686,0.4823529411764706,0.592156862745098,0.5294117647058824,0.4980392156862745,0.4980392156862745
196,10.623029947280882,0,0.4846771041608662,0.468484141933488,0.507733947099768,0.359183384899831,0.31771891516268036,0.3272560345833213,0.37693483375489933,0.5843137254901961,0.6666666666666666,0.4745098039215686,0.4666666666666667,0.5843137254901961,0.4980392156862745,0.5019607843137255,0.5019607843137255
197,10.651877999305725,0,0.4417053332095901,0.5870069605568445,0.47438128111368916,0.3567989277476373,0.31947852619679573,0.4772713347534638,0.33472009183861035,0.5490196078431373,0.4470588235294118,0.5490196078431373,0.5529411764705883,0.16470588235294117,0.49019607843137253,0.49019607843137253,0.47058823529411764
198,10.712787985801695,0,0.4375966713070379,0.6322022360402166,0.4271074988646558,0.3551749495705841,0.32015025265767,0.5344753642952844,0.2748852792967059,0.5725490196078431,0.6627450980392157,0.47058823529411764,0.5176470588235295,0.792156862745098,0.5490196078431373,0.5176470588235295,0.48627450980392156
199,10.7148779630661,0,0.47703982626450114,0.6077919529775716,0.43725831088012374,0.3544210224412937,0.31905049231564586,0.5035790695276269,0.2877332450231219,0.4745098039215686,0.5294117647058824,0.4823529411764706,0.48627450980392156,0.4392156862745098,0.4823529411764706,0.49019607843137253,0.5058823529411764
200,10.74198293685913,0,0.47515467631863884,0.5730858468677494,0.46481051520494976,0.35486491156386385,0.3160833243431834,0.459651267385603,0.3226062952099604,0.5333333333333333,0.4588235294117647,0.47058823529411764,0.48627450980392156,0.6352941176470588,0.5568627450980392,0.5215686274509804,0.5372549019607843
201,10.742931962013245,0,0.4730761760866202,0.5232018511987626,0.47351121175560706,0.35665233630503207,0.30951328142727746,0.3965126863858558,0.3336188379413647,0.5058823529411764,0.5411764705882353,0.5098039215686274,0.47843137254901963,0.3843137254901961,0.4627450980392157,0.44313725490196076,0.47058823529411764
202,10.771854043006897,0,0.47438128111368916,0.4998066487238979,0.4768948150348028,0.35788914161547297,0.30657611361644976,0.3669011874139906,0.3379014922646495,0.5019607843137255,0.4980392156862745,0.5333333333333333,0.5294117647058824,0.5725490196078431,0.42745098039215684,0.3764705882352941,0.5058823529411764
203,10.7742919921875,0,0.478779965970611,0.49110595217324055,0.4741395947409126,0.359285860079186,0.3037935570884544,0.35588864468258635,0.3344141874213832,0.5019607843137255,0.5058823529411764,0.5019607843137255,0.5568627450980392,0.6980392156862745,0.5411764705882353,0.7607843137254902,0.5529411764705883
204,10.802909970283508,0,0.4785866166744006,0.4790216523433875,0.4780549078422274,0.3608909307492823,0.3010401935507233,0.34059344762789723,0.3393698312119712,0.5019607843137255,0.5450980392156862,0.5215686274509804,0.4745098039215686,0.4,0.5333333333333333,0.7450980392156863,0.4980392156862745
205,10.83184802532196,0,0.4717710720494973,0.47085266462490327,0.4879156962103635,0.36237262774376555,0.29834796002534536,0.33025389311081366,0.35185071163771464,0.5019607843137255,0.5294117647058824,0.48627450980392156,0.47843137254901963,0.45098039215686275,0.3803921568627451,0.19607843137254902,0.3803921568627451
206,10.834321975708008,0,0.468484141933488,0.46394044485692193,0.48999419644238207,0.36352878984312287,0.29550322260851675,0.3215050400597322,0.3544814863681135,0.5372549019607843,0.592156862745098,0.4980392156862745,0.49411764705882355,0.7294117647058823,0.5058823529411764,0.5372549019607843,0.5215686274509804
207,10.862283945083618,0,0.4758797344470225,0.45422466870843003,0.48409705924207275,0.3643470325676482,0.2928342008358146,0.30920770278551807,0.3470174316187896,0.4980392156862745,0.4666666666666667,0.47843137254901963,0.45098039215686275,0.4117647058823529,0.5098039215686274,0.4196078431372549,0.49019607843137253
208,10.891793012619019,0,0.4887374304717711,0.4555781098221191,0.470272618716164,0.3649065394037332,0.2911670580357719,0.3109207642642355,0.32951972426364406,0.5215686274509804,0.4627450980392157,0.48627450980392156,0.5490196078431373,0.5686274509803921,0.5176470588235295,0.5450980392156862,0.5098039215686274
209,10.893788933753967,0,0.4871906400618716,0.45209783139984533,0.47003093234338744,0.3656514626002872,0.29060102416289174,0.3065157474222703,0.32921381984641696,0.4666666666666667,0.4,0.4666666666666667,0.5176470588235295,0.5568627450980392,0.5098039215686274,0.5294117647058824,0.48627450980392156
210,10.922224044799805,0,0.47235111795823664,0.4453789605320959,0.489462486620263,0.36667867023967177,0.29139642100565133,0.29801161765437406,0.3538084969008103,0.5215686274509804,0.49019607843137253,0.5411764705882353,0.5490196078431373,0.5294117647058824,0.4745098039215686,0.8745098039215686,0.6470588235294118
211,10.951861977577211,0,0.45393464525908744,0.45243619192575407,0.5029485686001547,0.367757195033127,0.29373657783145557,0.3069440131051953,0.3708779410789959,0.5254901960784314,0.5098039215686274,0.47058823529411764,0.42745098039215684,0.45098039215686275,0.5137254901960784,0.4196078431372549,0.4549019607843137
212,10.953650951385498,0,0.43730664810518177,0.4678074208816706,0.5344160836504254,0.3686073361878783,0.29717045712688345,0.3263995032174713,0.4107066320492643,0.47058823529411764,0.4980392156862745,0.5333333333333333,0.5098039215686274,0.47058823529411764,0.47058823529411764,0.48627450980392156,0.49411764705882355
213,11.012063980102539,0,0.36204562709976795,0.5836716943542151,1.0,0.3690659152780801,0.30122368031803703,0.473049861063028,1.0,0.47058823529411764,0.44313725490196076,0.4627450980392157,0.49411764705882355,0.611764705882353,0.4745098039215686,0.4,0.43529411764705883
214,11.013821959495543,0,0.2919083458623356,0.544856916937355,0.5714907174013921,0.369107764895864,0.2989747658081606,0.42392168006919473,0.45763229898369334,0.4470588235294118,0.5333333333333333,0.5372549019607843,0.44313725490196076,0.1607843137254902,0.8666666666666667,0.5137254901960784,0.48627450980392156
215,11.042295932769775,0,0.4675173984222738,0.5016434635730859,0.46969257280742466,0.36816219658870486,0.2966655577770937,0.36922605898014493,0.32878555541647453,0.5529411764705883,0.5490196078431373,0.5254901960784314,0.6196078431372549,0.6823529411764706,0.5372549019607843,0.5450980392156862,0.47058823529411764
216,11.071956038475037,0,0.4768948150348028,0.4778132214694509,0.48830239480278426,0.36854290782421206,0.2937823421426779,0.33906392679474406,0.3523401592064711,0.47058823529411764,0.44313725490196076,0.5176470588235295,0.4745098039215686,0.3803921568627451,0.4980392156862745,0.4588235294117647,0.5450980392156862
217,11.073655009269713,0,0.4411252869048724,0.46432714344934267,0.5212200290796597,0.3688470818725123,0.29165631665475705,0.32199448762848865,0.39400427793308496,0.5529411764705883,0.4823529411764706,0.43529411764705883,0.42745098039215684,0.5176470588235295,0.4745098039215686,0.5294117647058824,0.5019607843137255
218,11.102275013923645,0,0.448810901778809,0.4464907161639598,0.5070088909512761,0.36885780740329766,0.2897980835756915,0.2994187758435486,0.37601712426216555,0.5215686274509804,0.5372549019607843,0.5098039215686274,0.5098039215686274,0.6627450980392157,0.3843137254901961,0.3803921568627451,0.47843137254901963
219,11.131951928138733,0,0.47824825713843777,0.45146944742459394,0.4877223498839907,0.3686206052732774,0.28849801136630604,0.30572039668926926,0.35160599161228406,0.5294117647058824,0.5137254901960784,0.49019607843137253,0.47058823529411764,0.4470588235294118,0.6078431372549019,0.8666666666666667,0.5137254901960784
220,11.133675932884216,0,0.47766821023975253,0.4517594708739366,0.46466550298530546,0.3682527508919043,0.28798563944148553,0.3060874817393453,0.32242275205843113,0.6470588235294118,0.6823529411764706,0.4980392156862745,0.44313725490196076,0.5137254901960784,0.5450980392156862,0.6235294117647059,0.5529411764705883
221,11.162217974662779,0,0.4722544438051044,0.44576565813457075,0.45881670286156223,0.3682991400655335,0.2881997621713787,0.298501063970148,0.31501987794195613,0.4588235294117647,0.4980392156862745,0.4980392156862745,0.4588235294117647,0.49019607843137253,0.5254901960784314,0.34901960784313724,0.42745098039215684
222,11.192010045051576,0,0.4641337941531323,0.4391917988924981,0.46674400321732407,0.36864662345630983,0.28925512524375213,0.2901804766019915,0.32505352678883,0.5215686274509804,0.49019607843137253,0.4823529411764706,0.5254901960784314,0.5058823529411764,0.4549019607843137,0.3764705882352941,0.5529411764705883
223,11.19382095336914,0,0.46626063047177113,0.446587390812065,0.4779582336890951,0.36902690491879614,0.29167939509008756,0.29954113773573776,0.3392474699462734,0.49019607843137253,0.4745098039215686,0.5098039215686274,0.5411764705882353,0.5215686274509804,0.5176470588235295,0.5450980392156862,0.5254901960784314
224,11.22230100631714,0,0.4502610175406032,0.4583816671925754,0.46935421129157,0.3693553542513761,0.2945777958708461,0.3144692497403507,0.32835728848056694,0.4980392156862745,0.47058823529411764,0.48627450980392156,0.4745098039215686,0.47058823529411764,0.4392156862745098,0.4196078431372549,0.4745098039215686
225,11.251897931098938,0,0.3269044863109049,0.6857598614075793,0.7445378969837587,0.3705994957747548,0.2965506332135357,0.6022636884273402,0.6766595284249746,0.41568627450980394,0.4627450980392157,0.592156862745098,0.5686274509803921,0.6313725490196078,0.023529411764705882,0.4588235294117647,0.4549019607843137
226,11.253615021705627,0,0.432714614199536,0.47404292157772626,0.5462103610208816,0.37007448480176003,0.29347656603086575,0.3342918274086679,0.42563474530685985,0.5803921568627451,0.403921568627451,0.48627450980392156,0.43137254901960786,0.27450980392156865,0.6078431372549019,0.396078431372549,0.5333333333333333
227,11.282325029373169,0,0.4820668960866203,0.4580433076566125,0.5517208055684455,0.37018456558530516,0.2932243571792205,0.3140409853104083,0.4326093600053227,0.48627450980392156,0.6235294117647059,0.4392156862745098,0.45098039215686275,0.5254901960784314,0.42745098039215684,0.4980392156862745,0.4627450980392157
228,11.311910033226011,0,0.47061097924207274,0.47766821023975253,0.5167730041763341,0.37021669205835844,0.2935681585554214,0.33888038489619726,0.3883756421692286,0.4823529411764706,0.3686274509803922,0.4666666666666667,0.5294117647058824,0.5490196078431373,0.43529411764705883,0.5098039215686274,0.48627450980392156
229,11.313630938529966,0,0.4569798880123744,0.5001450082598607,0.5027552173240526,0.3699816375404604,0.29326237693048596,0.367329451843933,0.3706332147886526,0.49019607843137253,0.49019607843137253,0.5058823529411764,0.5372549019607843,0.5686274509803921,0.6980392156862745,0.47058823529411764,0.4980392156862745
230,11.342322945594788,0,0.43416473006032485,0.4968580791337974,0.514114459025522,0.3696232669841474,0.29265062949217746,0.3631691587863461,0.3850106998446427,0.4745098039215686,0.5294117647058824,0.48627450980392156,0.5803921568627451,0.5098039215686274,0.6039215686274509,0.7490196078431373,0.4588235294117647
231,11.372614026069641,0,0.4641337941531323,0.46336039894818254,0.5072022372776489,0.3695300952003626,0.29071576641748603,0.3207708712125626,0.3762618442875961,0.48627450980392156,0.44313725490196076,0.4980392156862745,0.47843137254901963,0.45098039215686275,0.4980392156862745,0.4392156862745098,0.5176470588235295
232,11.373741984367369,0,0.4716743969064192,0.44368715849651974,0.49966163650425366,0.369183651785118,0.289010388083785,0.29587028999153864,0.3667176442624613,0.5098039215686274,0.5294117647058824,0.5176470588235295,0.48627450980392156,0.3137254901960784,0.5254901960784314,0.4666666666666667,0.5176470588235295
233,11.402251958847046,0,0.4664539797679814,0.46017014397525136,0.4813418379582367,0.3685433588979367,0.2883450671893108,0.31673293942067354,0.3435301255225407,0.5254901960784314,0.5882352941176471,0.5647058823529412,0.5137254901960784,0.5215686274509804,0.5058823529411764,0.3803921568627451,0.4745098039215686
234,11.431959986686707,0,0.4627803530394432,0.4463940415158546,0.4675173984222738,0.3682162978700424,0.287855610298364,0.2992964139513595,0.3260324194203778,0.47058823529411764,0.49019607843137253,0.4823529411764706,0.42745098039215684,0.5686274509803921,0.43137254901960786,0.5725490196078431,0.4627450980392157
235,11.43360197544098,0,0.47172273596287706,0.4340680557092034,0.46495552544470226,0.36792462858777464,0.2880774008179721,0.2836953129806363,0.32278983585552457,0.48627450980392156,0.4745098039215686,0.5254901960784314,0.4392156862745098,0.4980392156862745,0.49411764705882355,0.10980392156862745,0.403921568627451
236,11.462414979934692,0,0.4722544438051044,0.4310228120649652,0.46969257280742466,0.36776549980159023,0.2894157176388747,0.2798409232125922,0.32878555541647453,0.4980392156862745,0.4823529411764706,0.5098039215686274,0.5490196078431373,0.5098039215686274,0.5450980392156862,0.5490196078431373,0.5490196078431373
237,11.491878032684324,0,0.47172273596287706,0.44011020572312454,0.470272618716164,0.36761849487473747,0.2922911462873437,0.2913429116332791,0.32951972426364406,0.5176470588235295,0.5294117647058824,0.5019607843137255,0.5333333333333333,0.49019607843137253,0.4470588235294118,0.40784313725490196,0.5019607843137255
238,11.493875980377195,0,0.4614269109358082,0.4463940415158546,0.4525812031554524,0.36741840608839266,0.29596945491624627,0.2992964139513595,0.307127555003742,0.4823529411764706,0.4823529411764706,0.4627450980392157,0.47843137254901963,0.4745098039215686,0.5411764705882353,0.5725490196078431,0.5098039215686274
239,11.522274017333984,0,0.38481244856921887,0.6632347223511215,0.8285479498839907,0.3674817067677473,0.298822175085018,0.5737534358348253,0.7829917389606285,0.4823529411764706,0.48627450980392156,0.47843137254901963,0.4980392156862745,0.5019607843137255,0.36470588235294116,0.48627450980392156,0.5058823529411764
240,11.551985025405884,0,0.3627706852281516,0.4918793473781903,0.5477088123743232,0.3673055461895109,0.2970020349689893,0.3568675373141342,0.4275313474311414,0.5254901960784314,0.5529411764705883,0.5098039215686274,0.5294117647058824,0.5450980392156862,0.9215686274509803,0.5450980392156862,0.5215686274509804
241,11.553687930107115,0,0.4335846835576179,0.47621809398298526,0.624516623047177,0.3671149838296335,0.29755272456674053,0.33704496089879954,0.5247476211186202,0.45098039215686275,0.4196078431372549,0.47843137254901963,0.4980392156862745,0.4980392156862745,0.3176470588235294,0.49411764705882355,0.5019607843137255
242,11.582276940345766,0,0.4196635698685228,0.4690158517556071,0.5439385144624904,0.3664575438760039,0.29870753845685427,0.3279290240506246,0.4227592505510304,0.5254901960784314,0.49411764705882355,0.49411764705882355,0.49411764705882355,0.49019607843137253,0.4823529411764706,0.49411764705882355,0.5058823529411764
243,11.61188793182373,0,0.4507927263727765,0.44794083192575407,0.5350444646558391,0.3662338062966634,0.29852375285319793,0.3012541992144551,0.4115019790233176,0.49019607843137253,0.5215686274509804,0.4627450980392157,0.47843137254901963,0.4980392156862745,0.3803921568627451,0.5647058823529412,0.49019607843137253
244,11.613654017448425,0,0.42005026747099766,0.455964807424594,0.5470804343387471,0.36497195261169807,0.29912789280784247,0.3114102105800094,0.42673600421603575,0.49411764705882355,0.5019607843137255,0.4823529411764706,0.4823529411764706,0.49019607843137253,0.5294117647058824,0.5568627450980392,0.4470588235294118
245,11.642225980758667,0,0.4301527422119103,0.4739462454447022,0.5404582310904872,0.36383601615695965,0.2991436691113609,0.33416946363700495,0.41835422744415235,0.5254901960784314,0.49019607843137253,0.4627450980392157,0.3803921568627451,0.38823529411764707,0.5019607843137255,0.5098039215686274,0.5843137254901961
246,11.6720609664917,0,0.42256380238205726,0.4813418379582367,0.5333526669760247,0.36255551809137676,0.29954852081022365,0.3435301255225407,0.4093606568736055,0.4745098039215686,0.4666666666666667,0.5529411764705883,0.5803921568627451,0.5254901960784314,0.4588235294117647,0.49019607843137253,0.4627450980392157
247,11.733281016349792,0,0.4177784189327146,0.5059938103634957,0.5152262137664346,0.3608963686936291,0.3004815567857339,0.37473232846637317,0.38641785690613295,0.5294117647058824,0.5058823529411764,0.5529411764705883,0.5529411764705883,0.5450980392156862,0.5372549019607843,0.5450980392156862,0.5607843137254902
248,11.735651969909668,0,0.40680587483372005,0.49932327795823667,0.5370746297911834,0.359994760026899,0.3008640636705598,0.36628938108550146,0.4140715756268328,0.49411764705882355,0.4980392156862745,0.4823529411764706,0.49411764705882355,0.5058823529411764,0.5254901960784314,0.5019607843137255,0.4823529411764706
249,11.762565970420836,0,0.42730084776488786,0.48380703480278425,0.5270204921268369,0.35595675556202094,0.30049696295820166,0.34665034531573097,0.4013459714167111,0.5490196078431373,0.5372549019607843,0.47843137254901963,0.5686274509803921,0.5372549019607843,0.5882352941176471,0.5372549019607843,0.5529411764705883
250,11.82283902168274,0,0.43846674091260635,0.47515467631863884,0.5136794233565352,0.3541214167674378,0.30007636051666486,0.33569898447015817,0.3844600716430373,0.5254901960784314,0.5215686274509804,0.48627450980392156,0.47058823529411764,0.5333333333333333,0.5803921568627451,0.5450980392156862,0.5372549019607843
251,11.824793934822084,0,0.4331979859551431,0.48864075235885535,0.5160962870843001,0.3521476396878219,0.30032095273787346,0.35276842113044843,0.38751911581530885,0.49019607843137253,0.49411764705882355,0.45098039215686275,0.4470588235294118,0.4745098039215686,0.4980392156862745,0.4745098039215686,0.4745098039215686
252,11.852264046669006,0,0.43435807876256766,0.5085556813611756,0.5173047139984532,0.34870743320631853,0.30128476697719336,0.3779749095252612,0.3890486316365318,0.7450980392156863,0.5019607843137255,0.41568627450980394,0.4392156862745098,0.49411764705882355,0.6039215686274509,0.6039215686274509,0.6549019607843137
253,11.8543199300766,0,0.4526778782985306,0.5058971352204177,0.519866584996133,0.3472775132105085,0.3010936132095437,0.37460996594769275,0.3922912126954199,0.35294117647058826,0.4980392156862745,0.47058823529411764,0.6666666666666666,0.49019607843137253,0.403921568627451,0.3843137254901961,0.34901960784313724
254,11.882362008094788,0,0.4569798880123744,0.5008217293116782,0.510827527919567,0.3455172982387952,0.30062684713124005,0.368185983209783,0.38085040428109057,0.6313725490196078,0.44313725490196076,0.39215686274509803,0.4470588235294118,0.5215686274509804,0.5411764705882353,0.5843137254901961,0.6274509803921569
255,11.912349939346313,0,0.45949342292343387,0.5013534391337974,0.5033352612529002,0.343766558321264,0.29998456826668785,0.3688589726770862,0.371367381129857,0.4588235294117647,0.4117647058823529,0.48627450980392156,0.4392156862745098,0.43529411764705883,0.5176470588235295,0.4745098039215686,0.5137254901960784
256,11.914350032806395,0,0.4594450858468678,0.5022718455684455,0.5029969036968291,0.34221404024605073,0.299433932547187,0.37002140720718085,0.3709391192058797,0.41568627450980394,0.4627450980392157,0.5058823529411764,0.5333333333333333,0.45098039215686275,0.48627450980392156,0.4823529411764706,0.5411764705882353
257,11.942291021347046,0,0.4651488757308585,0.48380703480278425,0.4991299276720805,0.3409750860705051,0.2986615251779956,0.34665034531573097,0.36604465604814057,0.5294117647058824,0.4392156862745098,0.5647058823529412,0.5490196078431373,0.5176470588235295,0.49019607843137253,0.5254901960784314,0.5098039215686274
258,11.972231030464172,0,0.4732211873163187,0.4716743969064192,0.4940061836968291,0.33953013905475243,0.29797332700827733,0.3312939663752104,0.3595594914243994,0.21568627450980393,0.5333333333333333,0.4588235294117647,0.4235294117647059,0.5137254901960784,0.4627450980392157,0.4117647058823529,0.41568627450980394
259,11.974350929260256,0,0.48105181450889406,0.4788283030471771,0.4897041720030936,0.3378020731097787,0.2975145236341958,0.340348723843519,0.35411440006505485,0.49019607843137253,0.5607843137254902,0.44313725490196076,0.44313725490196076,0.5176470588235295,0.47058823529411764,0.48627450980392156,0.34509803921568627
260,12.002238988876345,0,0.4729311648569219,0.4897525110595514,0.4831303137509667,0.33595121988503385,0.2970785871919871,0.35417558320386894,0.34579381394988096,0.11372549019607843,0.4117647058823529,0.5803921568627451,0.44313725490196076,0.41568627450980394,0.33725490196078434,0.5450980392156862,0.43137254901960786
261,12.032425999641418,0,0.4756863851508121,0.4731728502397525,0.48221190731631863,0.33395538404730163,0.2968950778709872,0.3331905710054571,0.3446313794197864,0.6823529411764706,0.5411764705882353,0.43137254901960786,0.47843137254901963,0.4549019607843137,0.6078431372549019,0.5686274509803921,0.5607843137254902
262,12.03442096710205,0,0.47380123421500386,0.46650231585460167,0.4942962071461717,0.33173651230046725,0.29733842821105294,0.3247476211186202,0.35992657647447546,0.11372549019607843,0.6431372549019608,0.5764705882352941,0.6588235294117647,0.5019607843137255,0.6196078431372549,0.5411764705882353,0.5882352941176471
263,12.062314987182615,0,0.44494392575406033,0.4978248226450116,0.511939286620263,0.3292584586033981,0.2985390041570203,0.36439277394928954,0.38225756635451114,0.7686274509803922,0.5607843137254902,0.6392156862745098,0.5098039215686274,0.5450980392156862,0.4588235294117647,0.47058823529411764,0.5803921568627451
264,12.09244704246521,0,0.4172950471771075,0.538718094354215,0.5316125262799691,0.32697975944488866,0.29999971231520234,0.41615172215562624,0.4071581465731491,0.6941176470588235,0.4666666666666667,0.49411764705882355,0.4745098039215686,0.5607843137254902,0.6274509803921569,0.5176470588235295,0.43529411764705883
265,12.094437956809998,0,0.38123549698375875,0.5939191783449342,0.5481921831399845,0.3250138297950985,0.30172018468461864,0.48602018529858015,0.42814315375963063,0.9647058823529412,0.5882352941176471,0.5176470588235295,0.5607843137254902,0.5215686274509804,0.47843137254901963,0.48627450980392156,0.5490196078431373
266,12.122233033180235,0,0.3845707631863883,0.6197795836040216,0.5374129893271462,0.3240893579554432,0.30207992600386147,0.5187519115815309,0.4144998400567752,0.396078431372549,0.47843137254901963,0.47843137254901963,0.49411764705882355,0.42745098039215684,0.4627450980392157,0.47843137254901963,0.47058823529411764
267,12.152490973472595,0,0.4207269885228152,0.5799980646558391,0.5276972151585461,0.32429534954266764,0.30101676027072943,0.4684001179307194,0.40220250528852625,0.6,0.44313725490196076,0.47058823529411764,0.49019607843137253,0.5019607843137255,0.4745098039215686,0.5176470588235295,0.5098039215686274
268,12.154431939125061,0,0.4452822861809745,0.5431167802010827,0.5147911820572312,0.325381801956833,0.29931154747482036,0.42171917478066856,0.38586723371645787,0.403921568627451,0.5058823529411764,0.5098039215686274,0.4745098039215686,0.5137254901960784,0.45098039215686275,0.5137254901960784,0.5098039215686274
269,12.18231201171875,0,0.45528808637277646,0.5241685966898685,0.5079756324825986,0.3268497875630705,0.29742254468981605,0.3977363040547644,0.37724073691914395,0.21176470588235294,0.4,0.4980392156862745,0.4588235294117647,0.5098039215686274,0.49411764705882355,0.47843137254901963,0.5098039215686274
270,12.212350010871887,0,0.4476024717958237,0.5134860770301625,0.5029969036968291,0.3286391719689757,0.2956253838981967,0.3842153516176068,0.3709391192058797,0.5647058823529412,0.5764705882352941,0.5294117647058824,0.5294117647058824,0.4235294117647059,0.47843137254901963,0.4823529411764706,0.4980392156862745
271,12.214367985725405,0,0.4506477151430781,0.5031419149265275,0.49937161305491107,0.3306802555132173,0.29391992363823033,0.3711226611044265,0.3663505592123852,0.3568627450980392,0.4627450980392157,0.45098039215686275,0.4196078431372549,0.47843137254901963,0.4117647058823529,0.45098039215686275,0.4549019607843137
272,12.242264032363892,0,0.4592517365506574,0.48685227854601704,0.49444122134570767,0.33279939360655625,0.292161119023696,0.3505047352090733,0.3601101221319699,0.5450980392156862,0.44313725490196076,0.41568627450980394,0.47843137254901963,0.5294117647058824,0.5215686274509804,0.4823529411764706,0.40784313725490196
273,12.27228593826294,0,0.46766240965197214,0.47210943257540605,0.49062258041763346,0.3347043255589524,0.29034870887037734,0.3318445945768158,0.3552768371011146,0.5098039215686274,0.4980392156862745,0.5764705882352941,0.5215686274509804,0.4823529411764706,0.5058823529411764,0.4823529411764706,0.49019607843137253
274,12.274330019950867,0,0.47491298994586234,0.4586233535653519,0.4889791158546017,0.33641686830288653,0.2882991797850809,0.3147751541575779,0.3531966905723211,0.596078431372549,0.4980392156862745,0.5764705882352941,0.5137254901960784,0.5137254901960784,0.5176470588235295,0.5098039215686274,0.5372549019607843
275,12.302343964576721,0,0.4782965942150039,0.442285379712297,0.4925560674400619,0.3377476447999908,0.28636437134042947,0.29409604712818277,0.3577240674270016,0.34901960784313724,0.4627450980392157,0.5686274509803921,0.4980392156862745,0.5019607843137255,0.49411764705882355,0.47843137254901963,0.5137254901960784
276,12.332469940185547,0,0.47834493129157,0.43435807876256766,0.49569798731631864,0.33851305802048554,0.28482717761792226,0.28406239752951934,0.3617008210920069,0.3803921568627451,0.5607843137254902,0.4235294117647059,0.5607843137254902,0.5058823529411764,0.5529411764705883,0.5294117647058824,0.5490196078431373
277,12.334288001060484,0,0.4819702199535963,0.42879930109822123,0.4927010796597061,0.33865755698220157,0.28377189727998786,0.2770266072101379,0.3579076105785309,0.8549019607843137,0.6705882352941176,0.5176470588235295,0.4588235294117647,0.592156862745098,0.5176470588235295,0.5490196078431373,0.5882352941176471
278,12.362290024757385,0,0.4777648843928847,0.43140950966744007,0.49361948708430003,0.3380911061167226,0.28350429566278834,0.2803303695283661,0.35907004636160805,0.4392156862745098,0.47843137254901963,0.5137254901960784,0.4588235294117647,0.5450980392156862,0.47058823529411764,0.49411764705882355,0.5294117647058824
279,12.392794013023375,0,0.4658739338592421,0.43116782378963653,0.4904775672080433,0.3366917338359297,0.28409313231483396,0.28002446573763023,0.35509329269660267,0.5215686274509804,0.44313725490196076,0.41568627450980394,0.5372549019607843,0.41568627450980394,0.5529411764705883,0.5254901960784314,0.5098039215686274
280,12.394811034202574,0,0.4592517365506574,0.43725831088012374,0.4912026263263728,0.3345894057567282,0.285844333204652,0.2877332450231219,0.35601100594828416,0.6352941176470588,0.49411764705882355,0.48627450980392156,0.49019607843137253,0.4627450980392157,0.5411764705882353,0.5098039215686274,0.5176470588235295
281,12.422284960746765,0,0.4557714591183295,0.4430587749172467,0.48835073187935035,0.33204254828086405,0.2884980130828922,0.2950749397597306,0.35240133983932004,0.7725490196078432,0.47843137254901963,0.3764705882352941,0.40784313725490196,0.49411764705882355,0.47058823529411764,0.5294117647058824,0.5411764705882353
282,12.452401995658875,0,0.44716743672080433,0.48351701036349576,0.49439288228924977,0.3287762908633639,0.2918934170425928,0.34628325901267226,0.3600489389931559,0.5137254901960784,0.4627450980392157,0.5294117647058824,0.5058823529411764,0.4823529411764706,0.5294117647058824,0.49019607843137253,0.49019607843137253
283,12.454533934593199,0,0.41811677945862336,0.5677687486465584,0.5504157005413767,0.32547252415969663,0.2956482098575397,0.4529213727125707,0.4309574779064717,0.35294117647058826,0.5137254901960784,0.5411764705882353,0.4980392156862745,0.41568627450980394,0.49019607843137253,0.5372549019607843,0.5843137254901961
284,12.482295036315918,0,0.34923626914153133,0.6295436968290796,0.5771945082753287,0.3230722042481873,0.29816440810293804,0.5311104294885939,0.4648516337075867,0.596078431372549,0.44313725490196076,0.3764705882352941,0.47058823529411764,0.4980392156862745,0.4823529411764706,0.5176470588235295,0.4627450980392157
285,12.51219093799591,0,0.3294663573085847,0.692672079195669,0.5774361936581593,0.3223156696621721,0.2980345557556569,0.6110125389724566,0.46515753687183126,0.5215686274509804,0.596078431372549,0.5490196078431373,0.49019607843137253,0.4549019607843137,0.4745098039215686,0.4549019607843137,0.34901960784313724
286,12.514348030090332,0,0.42720417321577725,0.605713452745553,0.5439385144624904,0.3227044626352454,0.2970783077768744,0.5009482947972279,0.4227592505510304,0.25882352941176473,0.35294117647058826,0.47843137254901963,0.5647058823529412,0.5411764705882353,0.5568627450980392,0.4235294117647059,0.47058823529411764
287,12.542346000671387,0,0.48105181450889406,0.563708426295437,0.5177880847641145,0.32394308978234065,0.29475348445054894,0.4477821895294011,0.389660437965021,0.5607843137254902,0.5333333333333333,0.5254901960784314,0.5019607843137255,0.5058823529411764,0.4745098039215686,0.5019607843137255,0.5725490196078431
288,12.572284936904907,0,0.48854408018561485,0.5223317838205723,0.5086040204176334,0.3254890923481984,0.2916793794278055,0.3954114349945752,0.3780360926640753,0.6941176470588235,0.5529411764705883,0.45098039215686275,0.4470588235294118,0.5411764705882353,0.5098039215686274,0.5215686274509804,0.47058823529411764
289,12.574327945709227,0,0.461330236782676,0.4950696023511214,0.507057230007734,0.3274533943736322,0.2888268543058182,0.3609054691060233,0.37607830740097964,0.5058823529411764,0.5764705882352941,0.5529411764705883,0.5254901960784314,0.4745098039215686,0.49019607843137253,0.5019607843137255,0.5372549019607843
290,12.602293968200685,0,0.44861755297757155,0.4708043275483372,0.5044953590100542,0.32958757452270454,0.2864408599119128,0.3301927124779648,0.37283572634209156,0.41568627450980394,0.5333333333333333,0.5372549019607843,0.49019607843137253,0.5490196078431373,0.4627450980392157,0.49019607843137253,0.40784313725490196
291,12.632292032241821,0,0.4590583882443929,0.45760827198762566,0.49937161305491107,0.3316441925448289,0.28452141391063757,0.31349035710880285,0.3663505592123852,0.08627450980392157,0.3176470588235294,0.49411764705882355,0.5215686274509804,0.6078431372549019,0.47058823529411764,0.4196078431372549,0.2823529411764706
292,12.634338974952698,0,0.4627803530394432,0.4526778782985306,0.49042923112142306,0.3333803327094733,0.2831984025224043,0.3072499175224224,0.35503211331673634,0.596078431372549,0.5568627450980392,0.5529411764705883,0.5098039215686274,0.4823529411764706,0.49411764705882355,0.5019607843137255,0.5607843137254902
293,12.662202954292296,0,0.46253866666666665,0.4361948925228152,0.4900425354988399,0.3348255040091057,0.28225015621560173,0.2863872677173928,0.35454266950692753,0.4823529411764706,0.4235294117647059,0.4470588235294118,0.4627450980392157,0.43137254901960786,0.43137254901960786,0.4627450980392157,0.5058823529411764
294,12.692364931106567,0,0.45988012052590876,0.42087199975251355,0.48830239480278426,0.3356586309135609,0.281714909252111,0.26699295711028137,0.3523401592064711,0.6901960784313725,0.5215686274509804,0.5411764705882353,0.5058823529411764,0.4549019607843137,0.49019607843137253,0.5098039215686274,0.5333333333333333
295,12.694507956504822,0,0.46708236473317866,0.41710169887084303,0.4866589302397525,0.3356827846585316,0.28165354418022803,0.2622208564712227,0.35026001267767765,0.4196078431372549,0.42745098039215684,0.44313725490196076,0.48627450980392156,0.5137254901960784,0.48627450980392156,0.4745098039215686,0.5450980392156862
296,12.722249984741213,0,0.4728344907037897,0.4179234311523589,0.48327532498066517,0.33479484227267486,0.2821278091086069,0.26326092973561943,0.3459773558484277,0.7294117647058823,0.5490196078431373,0.5372549019607843,0.5019607843137255,0.5294117647058824,0.5019607843137255,0.5490196078431373,0.47843137254901963
297,12.752403020858765,0,0.4705143050889405,0.418841837587007,0.4796500343387471,0.332876706389973,0.2836647597524959,0.264423364265714,0.3413887958549332,0.5843137254901961,0.49411764705882355,0.4392156862745098,0.4666666666666667,0.4588235294117647,0.5254901960784314,0.4980392156862745,0.47058823529411764
298,12.754281997680664,0,0.4656322474864656,0.4287509636256767,0.48047176860015467,0.33028299738991207,0.2860202861636769,0.2769654260760959,0.34242887162529506,0.2901960784313726,0.5333333333333333,0.4980392156862745,0.5568627450980392,0.49411764705882355,0.49411764705882355,0.49019607843137253,0.5411764705882353
299,12.782299041748047,0,0.45388630719257544,0.46804910626450114,0.49125096241299304,0.3270244257674863,0.2889339158599652,0.32670540638171586,0.3560721853281505,0.47843137254901963,0.5882352941176471,0.5568627450980392,0.5843137254901961,0.45098039215686275,0.5176470588235295,0.5411764705882353,0.5450980392156862
300,12.812304973602295,0,0.4335363464810518,0.5342710694508894,0.530645781778809,0.3235000927833592,0.2922528818285828,0.41052308639176976,0.40593453015722303,0.48627450980392156,0.5098039215686274,0.5490196078431373,0.5137254901960784,0.5294117647058824,0.5176470588235295,0.4666666666666667,0.3686274509803922
301,12.814435958862305,0,0.36794276529002323,0.6011214205723124,0.5706206440835266,0.3205019773944403,0.29524294053958694,0.49513612214675506,0.4565310400745174,0.403921568627451,0.5254901960784314,0.5725490196078431,0.4666666666666667,0.47843137254901963,0.43137254901960786,0.4627450980392157,0.48627450980392156
302,12.84230899810791,0,0.3087296940448569,0.6704369645784997,0.5967227347254447,0.3190419670222506,0.29629077402622267,0.5828693726830003,0.48956866952171274,0.5372549019607843,0.37254901960784315,0.4,0.48627450980392156,0.4745098039215686,0.4,0.44313725490196076,0.4745098039215686
303,12.872278928756714,0,0.3389404460943542,0.6370842926527456,0.5784029351894818,0.31933955163522376,0.2957553010246766,0.5406546232488159,0.46638114952880966,0.6039215686274509,0.6862745098039216,0.615686274509804,0.5098039215686274,0.5764705882352941,0.6274509803921569,0.5764705882352941,0.6196078431372549
304,12.874305009841919,0,0.4106728508584687,0.5732791931941221,0.5433101265274556,0.3202507293298285,0.2956714301304969,0.45989598741103355,0.42196389480609914,0.5490196078431373,0.6078431372549019,0.5529411764705883,0.5607843137254902,0.5568627450980392,0.5529411764705883,0.5450980392156862,0.5490196078431373
305,12.90241003036499,0,0.46708236473317866,0.538718094354215,0.5181264482598608,0.3217411683836913,0.29430237626891115,0.41615172215562624,0.3900887074068937,0.47058823529411764,0.49411764705882355,0.44313725490196076,0.4470588235294118,0.4980392156862745,0.49019607843137253,0.5137254901960784,0.49019607843137253
306,12.932384967803955,0,0.47824825713843777,0.5151295406032482,0.5057521249806651,0.3235853106337999,0.29264301674598675,0.3862954968934177,0.3744264253021286,0.48627450980392156,0.44313725490196076,0.4745098039215686,0.47058823529411764,0.4196078431372549,0.48627450980392156,0.43137254901960786,0.36470588235294116
307,12.93433701992035,0,0.46007346883217326,0.48346867427687545,0.49937161305491107,0.32548105697098734,0.2909528424974599,0.34622207963280593,0.3663505592123852,0.5333333333333333,0.47058823529411764,0.4980392156862745,0.47843137254901963,0.5529411764705883,0.5568627450980392,0.5294117647058824,0.5058823529411764
308,12.962263941764832,0,0.4577532832173241,0.45567478397525135,0.4965680556844548,0.3272702509235421,0.2892092227786718,0.3110431255299333,0.36280207373627,0.396078431372549,0.403921568627451,0.5019607843137255,0.4980392156862745,0.4980392156862745,0.49019607843137253,0.49411764705882355,0.49411764705882355
309,12.992411971092224,0,0.47583139737045627,0.43885343851508124,0.4955046370301624,0.32889895284487813,0.2870909061407047,0.2897522111070139,0.36145609605464607,0.44313725490196076,0.47058823529411764,0.5254901960784314,0.4823529411764706,0.5098039215686274,0.47058823529411764,0.4823529411764706,0.49411764705882355
310,12.9944429397583,0,0.49100927703016245,0.42478731384377416,0.4915893259087393,0.3302282959299242,0.2847968303801161,0.271948602153852,0.35650045477002323,0.5098039215686274,0.5450980392156862,0.5254901960784314,0.49411764705882355,0.5058823529411764,0.47843137254901963,0.5254901960784314,0.5882352941176471
311,13.022294044494627,0,0.5014501132869297,0.4101411420262955,0.489462486620263,0.331131208951508,0.2825026142854798,0.2534108227872923,0.3538084969008103,0.5215686274509804,0.43529411764705883,0.45098039215686275,0.4627450980392157,0.5058823529411764,0.4745098039215686,0.47843137254901963,0.4980392156862745
312,13.052461981773375,0,0.5050270658623357,0.40598414354215007,0.4867556043928848,0.33163834863413,0.2805979884367251,0.2481492758324597,0.35038237394337546,0.5803921568627451,0.5490196078431373,0.5294117647058824,0.5607843137254902,0.5450980392156862,0.4823529411764706,0.5019607843137255,0.4470588235294118
313,13.054432988166807,0,0.5019334850425368,0.4197119069450889,0.48864075235885535,0.3316604211750546,0.2795198620917266,0.26552461816295964,0.35276842113044843,0.5333333333333333,0.5176470588235295,0.4823529411764706,0.5803921568627451,0.43137254901960786,0.5215686274509804,0.5176470588235295,0.5254901960784314
314,13.082929968833925,0,0.48685227854601704,0.43972350812064964,0.48820572064965195,0.33076584925842856,0.27944334620522326,0.29085346531750517,0.3522177979407733,0.5843137254901961,0.4666666666666667,0.44313725490196076,0.44313725490196076,0.5098039215686274,0.48627450980392156,0.48627450980392156,0.4745098039215686
315,13.111922979354858,0,0.4686774912296984,0.4531129119876257,0.4865139180201083,0.32882132055090635,0.2805067833343796,0.3078005432180627,0.35007646952614835,0.5294117647058824,0.5333333333333333,0.5764705882352941,0.5647058823529412,0.6,0.5607843137254902,0.5176470588235295,0.5137254901960784
316,13.113667964935305,0,0.4541763316318638,0.45968677221964427,0.49115428924980664,0.32637494475913104,0.2825943308553097,0.31612113183920176,0.35594982531543523,0.4627450980392157,0.5333333333333333,0.5372549019607843,0.4980392156862745,0.49411764705882355,0.5098039215686274,0.5215686274509804,0.5372549019607843
317,13.143427968025208,0,0.43493812526527453,0.470272618716164,0.499226599845321,0.3236914545461152,0.28582141615347634,0.32951972426364406,0.3661670148078733,0.4,0.41568627450980394,0.40784313725490196,0.5294117647058824,0.396078431372549,0.4627450980392157,0.4745098039215686,0.4392156862745098
318,13.171895980834961,0,0.39515661067285385,0.5068638797215778,0.5016434635730859,0.3208767319508174,0.28972923691983304,0.3758335823636188,0.36922605898014493,0.3215686274509804,0.5254901960784314,0.5882352941176471,0.6078431372549019,0.3607843137254902,0.5411764705882353,0.5254901960784314,0.5450980392156862
319,13.173599004745483,0,0.3880993757153906,0.5777745472544471,0.4717710720494973,0.31802401516509865,0.29341519845301767,0.4655857937838784,0.33141632889389083,0.27058823529411763,0.43529411764705883,0.4470588235294118,0.44313725490196076,0.3254901960784314,0.48627450980392156,0.45098039215686275,0.4470588235294118
320,13.202286005020142,0,0.27044663634957467,0.5900522023201856,0.5094740877958236,0.3160971936072329,0.29563296807638484,0.48112572214084104,0.3791373440553558,0.26666666666666666,0.45098039215686275,0.4745098039215686,0.4666666666666667,0.26666666666666666,0.4470588235294118,0.5137254901960784,0.5333333333333333
321,13.23195993900299,0,0.3322215746326373,0.6067285333333333,0.4798917217014695,0.3156685219579557,0.2964587592690952,0.5022330905930202,0.3416947015251429,0.3176470588235294,0.43529411764705883,0.4117647058823529,0.49019607843137253,0.2784313725490196,0.5450980392156862,0.5176470588235295,0.5411764705882353
322,13.233711957931519,0,0.4022621777571539,0.6043116795050271,0.6570475607115236,0.3165801544852328,0.29622212398838893,0.4991740589505745,0.5659222947824428,0.23137254901960785,0.4549019607843137,0.5058823529411764,0.4549019607843137,0.30980392156862746,0.5215686274509804,0.49019607843137253,0.43137254901960786
323,13.262362003326414,0,0.3790119845320959,0.5452919486465584,0.4728828277803558,0.3175422258258001,0.29632114594778547,0.42447230325886987,0.33282348720836363,0.44313725490196076,0.6039215686274509,0.592156862745098,0.5372549019607843,0.3803921568627451,0.49019607843137253,0.5137254901960784,0.5254901960784314
324,13.291823983192446,0,0.5065738562722352,0.557569603712297,0.5406515774168601,0.3194321345172014,0.2940883300085441,0.4400122316158326,0.418598947469583,0.6509803921568628,0.596078431372549,0.6078431372549019,0.4745098039215686,0.6392156862745098,0.4980392156862745,0.49411764705882355,0.5254901960784314
325,13.293723940849304,0,0.4193252093426141,0.5195765605568445,0.5787412986852282,0.32174831539626136,0.29168693040195554,0.3919241263923612,0.46680941897068234,0.6039215686274509,0.4549019607843137,0.4196078431372549,0.4666666666666667,0.6,0.5098039215686274,0.4980392156862745,0.5215686274509804
326,13.35237193107605,0,0.3922080400928074,0.4762664310595514,0.5251836782675947,0.3240668756892187,0.28940806752874376,0.3371061415316484,0.39902110110353933,0.7058823529411765,0.6431372549019608,0.6588235294117647,0.6352941176470588,0.43137254901960786,0.5019607843137255,0.5490196078431373,0.6039215686274509
327,13.354115962982178,0,0.450164343387471,0.4476024717958237,0.4968580791337974,0.32629216020083807,0.2871443929593907,0.3008259340327232,0.3631691587863461,0.5019607843137255,0.5098039215686274,0.5019607843137255,0.45098039215686275,0.5215686274509804,0.47843137254901963,0.5137254901960784,0.49411764705882355
328,13.382387042045591,0,0.46698568860015466,0.4236272200464037,0.49357114802784224,0.33040521706857967,0.2847814334797193,0.2704802619535477,0.35900886322279396,0.4117647058823529,0.4745098039215686,0.45098039215686275,0.4549019607843137,0.5215686274509804,0.48627450980392156,0.5058823529411764,0.42745098039215684
329,13.412389039993286,0,0.4703209557927301,0.42725251068832176,0.48617555749419955,0.33146788286166684,0.2843455703369909,0.27506882194704224,0.3496482038432233,0.4196078431372549,0.45098039215686275,0.4823529411764706,0.47058823529411764,0.47058823529411764,0.48627450980392156,0.4745098039215686,0.4823529411764706
330,13.41378402709961,0,0.4754930358546017,0.42246712822892496,0.47974671047177114,0.33182667191415766,0.2842844604976571,0.26901192425920856,0.3415111596265962,0.5568627450980392,0.49019607843137253,0.4823529411764706,0.4823529411764706,0.5450980392156862,0.4980392156862745,0.49019607843137253,0.5176470588235295
331,13.442306995391846,0,0.46524554988399075,0.42411059279195673,0.44673240204176334,0.3313246732190137,0.28487303214388954,0.271092070788002,0.29972467963428445,0.5725490196078431,0.4627450980392157,0.5176470588235295,0.611764705882353,0.6745098039215687,0.5058823529411764,0.4745098039215686,0.4666666666666667
332,13.472216010093687,0,0.40356728179427687,0.39892691056457846,0.4651488757308585,0.33000888991132266,0.2870067360342876,0.23921687837686637,0.32303456089288546,0.45098039215686275,0.47843137254901963,0.4745098039215686,0.4470588235294118,0.6392156862745098,0.5058823529411764,0.48627450980392156,0.4549019607843137
333,13.474246978759766,0,0.4521461684764114,0.4273975219180201,0.5587296915699922,0.32805709139893874,0.2895303992365828,0.27525236384558893,0.4414805642982414,0.49411764705882355,0.4470588235294118,0.5098039215686274,0.42745098039215684,0.48627450980392156,0.5058823529411764,0.5215686274509804,0.5215686274509804
334,13.502458930015564,0,0.45731824952822897,0.46191028368136117,0.4867072673163187,0.32554083676932477,0.2928645524590598,0.31893544846814736,0.3503211933105266,0.2235294117647059,0.4470588235294118,0.7333333333333333,0.6862745098039216,0.4666666666666667,0.48627450980392156,0.47058823529411764,0.5215686274509804
335,13.531888008117676,0,0.4316511955452436,0.5250386660479506,0.5365429199690641,0.3226198938297751,0.2964511276028677,0.39883755795201004,0.4133985861595295,0.5372549019607843,0.48627450980392156,0.5098039215686274,0.47843137254901963,0.4627450980392157,0.4980392156862745,0.49411764705882355,0.48627450980392156
336,13.533676028251648,0,0.3459010029389018,0.6042150013921114,0.5913089682907966,0.320411590990905,0.29901350351843775,0.49905169267294636,0.48271642110087803,0.49411764705882355,0.49411764705882355,0.43529411764705883,0.48627450980392156,0.4,0.49019607843137253,0.5019607843137255,0.5176470588235295
337,13.562494993209839,0,0.2786639591647332,0.6619296272235112,0.6013147668986851,0.31980576765417984,0.29945649876324354,0.5721015662657999,0.4953808421721856,0.5843137254901961,0.5490196078431373,0.3764705882352941,0.4470588235294118,0.5176470588235295,0.5019607843137255,0.5254901960784314,0.4666666666666667
338,13.592232942581177,0,0.3444025515854602,0.6231631789636505,0.5703789587006961,0.3202884603939102,0.29799614382084755,0.5230345558809552,0.45622513691027283,0.615686274509804,0.5490196078431373,0.4980392156862745,0.5490196078431373,0.5411764705882353,0.49019607843137253,0.5019607843137255,0.5372549019607843
339,13.593742966651915,0,0.41391144290796594,0.5494006199535963,0.5373163112142305,0.32156605780484726,0.2970938648084434,0.4296726821106792,0.414377473779147,0.5686274509803921,0.49019607843137253,0.4392156862745098,0.48627450980392156,0.5215686274509804,0.5098039215686274,0.5372549019607843,0.5411764705882353
340,13.622285008430481,0,0.44668406496519725,0.5158062626450116,0.529679037277649,0.32288055931137083,0.2954418223278236,0.38715202951225025,0.404710913741297,0.5450980392156862,0.4,0.4627450980392157,0.4392156862745098,0.5098039215686274,0.4823529411764706,0.49019607843137253,0.4666666666666667
341,13.651999950408936,0,0.4323279165970611,0.5067672055684455,0.5146461688476411,0.3241810399429543,0.29386652628249976,0.375711221097921,0.38568368931194597,0.4470588235294118,0.5607843137254902,0.5882352941176471,0.5019607843137255,0.4980392156862745,0.5137254901960784,0.49411764705882355,0.47843137254901963
342,13.653718948364258,0,0.4209686748955917,0.49854988275328693,0.5067188665119876,0.32547263943409294,0.2925969656270545,0.36531048845395364,0.3756500379591069,0.4823529411764706,0.5372549019607843,0.40784313725490196,0.4627450980392157,0.5333333333333333,0.5137254901960784,0.5137254901960784,0.5019607843137255
343,13.682253003120422,0,0.4351798112420727,0.474332944037123,0.4966163927610209,0.32687285998408466,0.29122814870447244,0.3346589112057614,0.36286325436911887,0.42745098039215684,0.4823529411764706,0.4823529411764706,0.4980392156862745,0.49019607843137253,0.4745098039215686,0.4588235294117647,0.4470588235294118
344,13.711895942687988,0,0.455529772745553,0.45248452900232017,0.4912026263263728,0.3281485854390645,0.2898515758573815,0.3070051937380442,0.35601100594828416,0.5333333333333333,0.5176470588235295,0.5333333333333333,0.47058823529411764,0.5176470588235295,0.5176470588235295,0.49411764705882355,0.47843137254901963
345,13.713773965835571,0,0.46882250146945087,0.42638244083526683,0.4865139180201083,0.32932705939901696,0.2885668453043914,0.27396756742330525,0.35007646952614835,0.4235294117647059,0.47058823529411764,0.48627450980392156,0.47058823529411764,0.5137254901960784,0.5098039215686274,0.49411764705882355,0.4666666666666667
346,13.742316961288452,0,0.47921500064965195,0.41400811805104415,0.48506380077339517,0.33017613301261994,0.28753444981598075,0.25830528594503144,0.3482410442757679,0.5882352941176471,0.5607843137254902,0.49019607843137253,0.44313725490196076,0.49411764705882355,0.5294117647058824,0.5333333333333333,0.5725490196078431
347,13.772197961807251,0,0.4913959756225832,0.40864268869296216,0.48081012813611756,0.3306659339224607,0.28658615677292837,0.25151421815704555,0.3428571360552375,0.5450980392156862,0.5176470588235295,0.5058823529411764,0.5137254901960784,0.5098039215686274,0.4980392156862745,0.5058823529411764,0.5411764705882353
348,13.773636937141418,0,0.4951662774941995,0.4177300818561485,0.48390370895591645,0.33081870382211054,0.28601261189604205,0.2630162059512412,0.3467727065814288,0.3843137254901961,0.4470588235294118,0.5450980392156862,0.5450980392156862,0.49019607843137253,0.4745098039215686,0.47058823529411764,0.4392156862745098
349,13.80235993862152,0,0.4875773366744007,0.4271074988646558,0.48443541877803564,0.330389832948605,0.28592088718182546,0.2748852792967059,0.347445696048732,0.43529411764705883,0.4980392156862745,0.47843137254901963,0.5294117647058824,0.5411764705882353,0.5019607843137255,0.5058823529411764,0.5215686274509804
350,13.831828951835632,0,0.47873162889404486,0.43982018247177107,0.48864075235885535,0.3292362632701818,0.2866167239091753,0.2909758268337995,0.35276842113044843,0.34901960784313724,0.4823529411764706,0.5843137254901961,0.5529411764705883,0.5176470588235295,0.5215686274509804,0.47843137254901963,0.4470588235294118
351,13.833734035491945,0,0.4621519690641918,0.4597834463727765,0.4950212652745553,0.327148964716888,0.2885133001844265,0.31624349310489963,0.36084428847317435,0.6392156862745098,0.47843137254901963,0.43529411764705883,0.4,0.47058823529411764,0.49019607843137253,0.4745098039215686,0.44313725490196076
352,13.862375974655151,0,0.4389017757203403,0.4621036319876257,0.5069605518948183,0.3245927249075518,0.29135042551914514,0.31918017099954304,0.3759559411233515,0.5803921568627451,0.4980392156862745,0.5803921568627451,0.4745098039215686,0.5137254901960784,0.4666666666666667,0.45098039215686275,0.4549019607843137
353,13.891930937767027,0,0.3994102833101315,0.5016434635730859,0.532434258561485,0.3218559716585367,0.2951512524124613,0.36922605898014493,0.40819821983754584,0.4117647058823529,0.4666666666666667,0.47058823529411764,0.4470588235294118,0.4627450980392157,0.4823529411764706,0.5058823529411764,0.5411764705882353
354,13.893826007843018,0,0.33207656736272234,0.5596481039443155,0.5483855294663573,0.3191107119108648,0.2987532297191928,0.4426430063462314,0.42838787378506116,0.39215686274509803,0.4666666666666667,0.43137254901960786,0.5137254901960784,0.5137254901960784,0.5019607843137255,0.5137254901960784,0.5372549019607843
355,13.922307968139648,0,0.29302010456303174,0.6138824365042537,0.5745359591647332,0.3172752453120597,0.3005885810436017,0.5112878443023813,0.46148668637107054,0.6196078431372549,0.7019607843137254,0.47058823529411764,0.49411764705882355,0.42745098039215684,0.5098039215686274,0.5137254901960784,0.5254901960784314
356,13.951907992362974,0,0.29688708058778035,0.6119006143851508,0.5695088952822893,0.3169236947398664,0.30090222388117116,0.5087794358496105,0.45512389053092256,0.43137254901960786,0.5176470588235295,0.5568627450980392,0.611764705882353,0.5411764705882353,0.49411764705882355,0.5058823529411764,0.5254901960784314
357,13.981917023658752,0,0.37403325475638055,0.575309354369683,0.5476604733178655,0.3173440791624363,0.3011009606993247,0.46246557900261837,0.42747016429232737,0.5215686274509804,0.45098039215686275,0.5411764705882353,0.5372549019607843,0.48627450980392156,0.47843137254901963,0.5098039215686274,0.5372549019607843
358,13.98378300666809,0,0.430684451638051,0.5294856909512761,0.5373646502706882,0.31824720895000436,0.2998700005525653,0.4044661937158664,0.41443865691796106,0.4823529411764706,0.4470588235294118,0.44313725490196076,0.47058823529411764,0.5137254901960784,0.45098039215686275,0.5176470588235295,0.5176470588235295
359,14.012472033500671,0,0.4353731601423047,0.5082656569218871,0.5345610938901779,0.31949290793071555,0.298003728124334,0.37760782322220254,0.4108901726948285,0.5686274509803921,0.4470588235294118,0.4392156862745098,0.5058823529411764,0.5254901960784314,0.5137254901960784,0.5019607843137255,0.4666666666666667
360,14.014287948608398,0,0.43145784684300076,0.507057230007734,0.5340777231245166,0.32099889775123464,0.29554880072652945,0.37607830740097964,0.4102783663663393,0.6313725490196078,0.5058823529411764,0.49019607843137253,0.48627450980392156,0.4745098039215686,0.5098039215686274,0.49411764705882355,0.5294117647058824
361,14.042412996292114,0,0.43242459075019335,0.49531128872389796,0.527503863882444,0.322788441285926,0.2928569727916088,0.36121137352325045,0.4019577789981828,0.4666666666666667,0.4666666666666667,0.47058823529411764,0.49411764705882355,0.5254901960784314,0.5098039215686274,0.49411764705882355,0.4745098039215686
362,14.072374939918518,0,0.44146364733178656,0.4785866166744006,0.5234435365815931,0.3248839506339904,0.29003513012286625,0.3400428194262919,0.3968185895501003,0.4745098039215686,0.5176470588235295,0.4823529411764706,0.49411764705882355,0.5019607843137255,0.48627450980392156,0.5098039215686274,0.5294117647058824
363,14.074293971061707,0,0.4500676692343388,0.45954175999999997,0.5154195640525909,0.3269037560282558,0.287335589954939,0.3159375886876724,0.3866625819434938,0.4,0.4235294117647059,0.4666666666666667,0.4666666666666667,0.49019607843137253,0.5372549019607843,0.47058823529411764,0.45098039215686275
364,14.102445006370544,0,0.45330626128383605,0.446587390812065,0.5041569955143078,0.32865332691305066,0.2850185638138384,0.29954113773573776,0.37240745690021887,0.5686274509803921,0.5803921568627451,0.596078431372549,0.5215686274509804,0.5294117647058824,0.5333333333333333,0.5176470588235295,0.5372549019607843
365,14.132367968559265,0,0.45891337701469453,0.44151198450734724,0.49825985831399844,0.3300913938015203,0.2832137766185183,0.29311715449663495,0.36494340215089494,0.592156862745098,0.5333333333333333,0.4549019607843137,0.48627450980392156,0.5137254901960784,0.5058823529411764,0.5137254901960784,0.4823529411764706
366,14.13436794281006,0,0.45610981865429234,0.4399168569218871,0.49357114802784224,0.33114799390599403,0.2823494391712673,0.29109818847539215,0.35900886322279396,0.5137254901960784,0.5019607843137255,0.5176470588235295,0.5294117647058824,0.48627450980392156,0.4980392156862745,0.5019607843137255,0.4980392156862745
367,14.16220998764038,0,0.4504543668368136,0.43851507811786544,0.48627223164733174,0.33161362352910806,0.28239545583317893,0.2893239455869766,0.3497705651089212,0.5333333333333333,0.4980392156862745,0.5176470588235295,0.5098039215686274,0.47058823529411764,0.4745098039215686,0.4980392156862745,0.5019607843137255
368,14.19235897064209,0,0.45441801701469453,0.43793503171415316,0.47737818778035573,0.3314765948494648,0.2831524565287095,0.28858977611331577,0.3385133010991038,0.47058823529411764,0.48627450980392156,0.44313725490196076,0.5019607843137255,0.49411764705882355,0.49019607843137253,0.5058823529411764,0.5019607843137255
369,14.197445034980776,0,0.44958429698375874,0.44576565813457075,0.4776198731631864,0.3306594146541574,0.2847047758808875,0.298501063970148,0.3388192042633484,0.5215686274509804,0.5098039215686274,0.5058823529411764,0.43137254901960786,0.5254901960784314,0.4980392156862745,0.5058823529411764,0.49019607843137253
370,14.222056031227114,0,0.4489075764269142,0.4435421470688322,0.4783932683681361,0.3292513967936427,0.28664732262058296,0.29568674784239535,0.3397980968948962,0.615686274509804,0.5098039215686274,0.5215686274509804,0.5019607843137255,0.5137254901960784,0.5019607843137255,0.48627450980392156,0.4823529411764706
371,14.252269983291626,0,0.4531129119876257,0.4400618685475638,0.4822602443928848,0.32731693705403997,0.28912510635002797,0.29128173087513193,0.3446925600526353,0.4,0.4549019607843137,0.4627450980392157,0.4980392156862745,0.5137254901960784,0.48627450980392156,0.5058823529411764,0.5294117647058824
372,14.254801034927368,0,0.4566415284764115,0.44726411136890953,0.4867556043928848,0.3249377111040693,0.2921458103332721,0.3003976684750964,0.35038237394337546,0.5843137254901961,0.5411764705882353,0.48627450980392156,0.49019607843137253,0.4745098039215686,0.5215686274509804,0.5254901960784314,0.5254901960784314
373,14.282824993133545,0,0.4435421470688322,0.48216357023975254,0.5087490276875483,0.3220923631088352,0.2956864320907881,0.3445701987869375,0.37821962955069177,0.4549019607843137,0.5137254901960784,0.5176470588235295,0.5215686274509804,0.47843137254901963,0.49411764705882355,0.5137254901960784,0.5019607843137255
374,14.31232500076294,0,0.3998453179891725,0.5344644207269915,0.5554427644238206,0.31955465115273773,0.2994645742358968,0.4107678126821132,0.4373202737466196,0.4666666666666667,0.4666666666666667,0.5098039215686274,0.49411764705882355,0.43137254901960786,0.5098039215686274,0.48627450980392156,0.4823529411764706
375,14.314360976219175,0,0.3475928045784996,0.5857501945862336,0.5646751678267595,0.31789485521598476,0.30243168833010875,0.4756806357934268,0.4490058021863794,0.4666666666666667,0.5176470588235295,0.5019607843137255,0.5058823529411764,0.42745098039215684,0.5058823529411764,0.5137254901960784,0.47843137254901963
376,14.342257022857664,0,0.3615622533642691,0.6081786555297757,0.5348511183294664,0.3168476612516519,0.3036937875996576,0.5040685221083137,0.4112572589978871,0.5803921568627451,0.5137254901960784,0.4980392156862745,0.5372549019607843,0.6274509803921569,0.592156862745098,0.6392156862745098,0.4588235294117647
377,14.372426986694336,0,0.40260053828306264,0.5859435409126064,0.5025618660479505,0.31646554041075525,0.3047416581745774,0.4759253558188573,0.3703884884983092,0.5176470588235295,0.48627450980392156,0.4588235294117647,0.5215686274509804,0.5450980392156862,0.4470588235294118,0.4549019607843137,0.4980392156862745
378,14.374454975128176,0,0.4127030130239753,0.5318542116627997,0.49975830966744006,0.31738949602159244,0.3056891360271707,0.40746404973739364,0.36684000427517655,0.3607843137254902,0.5058823529411764,0.4980392156862745,0.5254901960784314,0.796078431372549,0.49019607843137253,0.4745098039215686,0.5254901960784314
379,14.402346968650818,0,0.39921693302397526,0.5088940418870843,0.5091840653364269,0.31835228782713654,0.3067822330078962,0.3784031752081862,0.37877026025826227,0.796078431372549,0.8274509803921568,0.4980392156862745,0.3764705882352941,0.48627450980392156,0.47843137254901963,0.592156862745098,0.4117647058823529
380,14.43274700641632,0,0.385344158391338,0.5432617874709976,0.5100057976179428,0.31908738388140667,0.30781520311411276,0.421902711667285,0.379810333522659,0.37254901960784315,0.44313725490196076,0.5058823529411764,0.4588235294117647,0.5058823529411764,0.5137254901960784,0.4392156862745098,0.47843137254901963
381,14.435014963150024,0,0.40733758366589323,0.5566511913379737,0.48443541877803564,0.3202050718980193,0.30868774383823894,0.43884978956784254,0.347445696048732,0.23921568627450981,0.403921568627451,0.47058823529411764,0.5098039215686274,0.32941176470588235,0.48627450980392156,0.41568627450980394,0.5333333333333333
382,14.462996006011965,0,0.42908932405259087,0.5375096674400619,0.4746229664965197,0.32204643753875634,0.3096273291536341,0.4146222063344033,0.3350259950028549,0.4392156862745098,0.5254901960784314,0.5607843137254902,0.6392156862745098,0.21176470588235294,0.596078431372549,0.5529411764705883,0.5529411764705883
383,14.49225902557373,0,0.42768754536736275,0.5169663544624904,0.4811484886620263,0.32413500786935706,0.3105761251438894,0.38862036720658943,0.34328540173816247,0.8196078431372549,0.4627450980392157,0.5647058823529412,0.592156862745098,0.4392156862745098,0.4627450980392157,0.49411764705882355,0.4196078431372549
