time,gesture,ax,ay,az,qw,qx,qy,qz,e0,e1,e2,e3,e4,e5,e6,e7
69.53831994533539,false,-0.099121094,-0.21044922,0.92578125,0.82399994,-0.093630806,-0.21044922,0.92578125,-33,-15,1,9,-21,0,-4,-5
69.5674889087677,false,-0.05078125,-0.2553711,0.90625,0.82280874,-0.107237965,-0.2553711,0.90625,13,22,-5,-26,7,2,4,-17
69.56967294216156,false,-0.07470703,-0.46435547,0.734375,0.82103515,-0.12017679,-0.46435547,0.734375,-37,-5,-25,-60,-80,0,-24,-22
69.59833693504333,false,-0.01953125,-0.39453125,0.5878906,0.8214984,-0.11877821,-0.39453125,0.5878906,26,-3,-2,23,29,-19,-34,-34
69.62725794315338,false,-0.1508789,-0.16015625,0.7446289,0.82430845,-0.106754206,-0.16015625,0.7446289,48,5,-3,-12,-11,-12,13,3
69.6301349401474,false,-0.36621094,0.122558594,0.8154297,0.82670975,-0.097471796,0.122558594,0.8154297,-46,3,-6,-1,31,-3,9,-16
69.65829300880432,false,-0.09326172,-0.3544922,1.1489258,0.82323563,-0.10699377,-0.3544922,1.1489258,4,-14,9,18,-11,10,5,-8
69.68795895576477,false,-0.17675781,-0.6489258,1.2602539,0.8216037,-0.11236702,-0.6489258,1.2602539,21,2,2,10,1,-5,-2,-1
69.68984591960907,false,-0.32470703,-0.48876953,1.2231445,0.8225596,-0.11419523,-0.48876953,1.2231445,2,0,2,8,10,-12,-9,-2
69.71826100349426,false,-0.23779297,-0.43798828,1.1303711,0.8239804,-0.12048425,-0.43798828,1.1303711,-15,-2,3,1,0,34,8,-5
69.7476259469986,false,-0.024902344,-0.46533203,1.0625,0.8257449,-0.13085942,-0.46533203,1.0625,-9,-5,2,3,3,-2,-1,-5
69.74971401691437,false,-0.07470703,-0.45703125,1.0117188,0.8300633,-0.13183358,-0.45703125,1.0117188,-6,-8,5,7,1,-8,-5,-3
69.77826690673828,false,0.09423828,-0.3305664,0.8486328,0.8333703,-0.13195743,-0.3305664,0.8486328,0,3,-1,6,10,-4,0,1
69.80760395526886,false,0.057128906,-0.203125,0.84472656,0.8369918,-0.12640633,-0.203125,0.84472656,17,10,-5,-6,11,5,2,2
69.80985200405121,false,-0.05029297,-0.30859375,0.8540039,0.8397523,-0.122013725,-0.30859375,0.8540039,-12,-4,-1,-5,2,5,-1,0
69.83834600448608,false,-0.15966797,-0.3154297,0.88134766,0.8433898,-0.11737145,-0.3154297,0.88134766,-1,-7,3,13,4,-3,-1,-3
69.86758291721344,false,-0.078125,-0.2993164,0.91064453,0.8467412,-0.11340339,-0.2993164,0.91064453,1,0,-1,-5,-3,0,0,0
69.8697019815445,false,-0.044433594,-0.2998047,0.93652344,0.84976536,-0.11041701,-0.2998047,0.93652344,-3,-6,-1,4,20,-3,-6,-4
69.89827990531921,false,-0.044921875,-0.25390625,0.9765625,0.8525451,-0.10711745,-0.25390625,0.9765625,-1,0,4,13,-5,-1,1,2
69.92761898040771,false,-0.045410156,-0.27734375,1.0224609,0.85531104,-0.10376284,-0.27734375,1.0224609,-1,-5,-3,-9,-6,-2,-2,-2
69.92979490756989,false,-0.025390625,-0.3310547,1.0605469,0.8580736,-0.100705706,-0.3310547,1.0605469,-5,-1,-4,3,-2,-3,2,-2
69.95827496051788,false,0.023925781,-0.32714844,1.0571289,0.86065346,-0.0959469,-0.32714844,1.0571289,2,7,-1,-9,-5,1,2,0
69.98759996891022,false,0.052246094,-0.29296875,1.059082,0.8631838,-0.090151496,-0.29296875,1.059082,1,0,2,-2,-8,-1,0,-1
69.99008095264435,false,0.06738281,-0.23535156,1.0327148,0.86558366,-0.084409975,-0.23535156,1.0327148,1,-2,0,7,-2,0,-1,-1
70.01828193664551,false,0.0703125,-0.1928711,0.97216797,0.8677143,-0.079526745,-0.1928711,0.97216797,-1,-2,-2,-7,-1,-2,-1,-2
70.04758501052856,false,0.051757812,-0.1508789,0.9428711,0.8697034,-0.074830264,-0.1508789,0.9428711,-3,-2,-2,-2,0,0,-1,0
70.04968297481537,false,0.018066406,-0.103027344,0.90771484,0.87170076,-0.069091536,-0.103027344,0.90771484,-1,1,1,-3,1,-1,1,-1
70.07825601100922,false,-0.025390625,-0.06640625,0.86376953,0.87394613,-0.0622547,-0.06640625,0.86376953,-5,-4,0,18,5,-2,-5,-2
70.10758697986603,false,-0.040039062,-0.024902344,0.83251953,0.8763493,-0.053039942,-0.024902344,0.83251953,4,3,-1,-11,-1,3,0,2
70.1098690032959,false,-0.10498047,0.0073242188,0.8491211,0.8792214,-0.04162645,0.0073242188,0.8491211,1,-4,-1,-7,-4,-2,1,0
70.13830101490021,false,-0.15576172,0.00048828125,0.8364258,0.88231295,-0.02941857,0.00048828125,0.8364258,-3,-2,-2,-2,1,1,-3,-3
70.16761898994446,false,-0.16064453,-0.018554688,0.81396484,0.8852498,-0.016723555,-0.018554688,0.81396484,1,3,-1,-12,-8,3,-1,0
70.17053699493408,false,-0.16992188,-0.01171875,0.85302734,0.8878017,-0.0026244654,-0.01171875,0.85302734,-1,1,2,1,3,-4,1,0
70.19823801517487,false,-0.22509766,-0.040527344,0.8989258,0.89012027,0.010253717,-0.040527344,0.8989258,1,0,-1,4,-5,1,4,1
70.22775495052338,false,-0.22021484,-0.0625,0.96191406,0.8917588,0.022339748,-0.0625,0.96191406,-1,-3,-6,1,1,-9,2,1
70.2296769618988,false,-0.20214844,-0.040039062,0.99072266,0.89245754,0.034545954,-0.040039062,0.99072266,-3,-1,-1,11,1,0,-3,-3
70.2583669424057,false,-0.17919922,-0.018066406,1.0087891,0.8926681,0.047364816,-0.018066406,1.0087891,1,2,2,-1,4,3,0,0
70.28855895996094,false,-0.20458984,-0.041503906,1.0405273,0.8926526,0.059876386,-0.041503906,1.0405273,-3,-4,-3,-3,-2,-1,-4,-5
70.29096293449402,false,-0.19384766,-0.037109375,1.074707,0.892159,0.07251042,-0.037109375,1.074707,0,2,0,-6,-1,-1,1,1
70.31853890419006,false,-0.17236328,-0.025878906,1.0380859,0.8912731,0.08356067,-0.025878906,1.0380859,-8,-9,1,0,-1,-3,-3,-4
70.34750294685364,false,-0.14550781,-0.0063476562,1.0258789,0.89002484,0.09436143,-0.0063476562,1.0258789,1,3,-3,-3,4,4,2,0
70.3497269153595,false,-0.18408203,0.084472656,1.0751953,0.8884194,0.1007681,0.084472656,1.0751953,-11,-16,1,0,-23,-11,-8,-6
70.3782809972763,false,-0.39501953,-0.08154297,1.0161133,0.8864017,0.109312505,-0.08154297,1.0161133,-1,-13,0,-4,6,-14,-3,1
70.40761291980743,false,-0.05908203,-0.010253906,1.3818359,0.8863042,0.10644683,-0.010253906,1.3818359,11,5,-1,1,23,18,5,4
70.4098550081253,false,-0.12597656,0.017089844,1.1782227,0.88691825,0.10333443,0.017089844,1.1782227,-6,14,-4,-2,-9,-1,1,0
70.43829691410065,false,0.056640625,0.08691406,1.0009766,0.8876572,0.0986964,0.08691406,1.0009766,-1,-3,-4,-6,-13,-1,0,-2
70.46769201755524,false,-0.037109375,-0.005859375,0.9291992,0.888164,0.09351022,-0.005859375,0.9291992,2,6,-1,0,6,6,2,1
70.4697790145874,false,-0.060058594,0.05419922,0.91064453,0.8884467,0.09100536,0.05419922,0.91064453,1,-3,0,0,-5,-2,-3,-2
70.49853992462158,false,-0.05908203,0.056152344,0.94433594,0.8886764,0.08886764,0.056152344,0.94433594,2,-1,-1,7,-6,-1,-1,1
70.52713990211487,false,-0.07128906,0.024414062,1.0986328,0.88882667,0.08722245,0.024414062,1.0986328,1,3,-1,-2,1,1,1,-3
70.52966296672821,false,-0.111816406,0.07763672,1.0849609,0.88885856,0.08990515,0.07763672,1.0849609,1,0,-1,-4,2,3,0,0
70.55829691886902,false,-0.083496094,0.12402344,0.99902344,0.88865197,0.09491406,0.12402344,0.99902344,1,2,0,-4,0,1,-1,-1
70.5871809720993,false,-0.1665039,0.1743164,0.9550781,0.8884538,0.101504445,0.1743164,0.9550781,0,1,-2,0,-2,-3,1,1
70.58968698978424,false,-0.2133789,0.15722656,0.96875,0.88795584,0.106630385,0.15722656,0.96875,-1,0,0,-3,0,-2,0,0
70.61826992034912,false,-0.21386719,0.1694336,0.9765625,0.88782585,0.11010847,0.1694336,0.9765625,-1,1,-1,5,-1,-3,-2,-2
70.64782190322876,false,-0.21289062,0.24316406,0.9765625,0.8872868,0.11303949,0.24316406,0.9765625,-1,3,0,-2,-4,6,1,-2
70.6496229171753,false,-0.18847656,0.25097656,0.98291016,0.8872136,0.11596765,0.25097656,0.98291016,-1,0,-2,-1,-2,2,-2,-2
70.67835891246796,false,-0.19677734,0.2006836,1.0029297,0.8875309,0.11535888,0.2006836,1.0029297,-1,-4,0,-1,4,-4,-3,-4
70.707239985466,false,-0.16552734,0.09326172,1.0537109,0.8880646,0.11401407,0.09326172,1.0537109,-3,0,1,0,-14,0,-2,1
70.70965099334717,false,-0.1508789,0.14941406,1.1040039,0.8883989,0.113712616,0.14941406,1.1040039,-2,-3,0,7,-4,-14,-9,5
70.73826599121094,false,-0.15332031,0.20800781,1.1557617,0.8886802,0.11248885,0.20800781,1.1557617,2,0,-3,-8,-3,14,20,0
70.76764392852783,false,-0.05859375,0.31298828,1.1933594,0.8894061,0.10681174,0.31298828,1.1933594,0,-2,0,12,-7,6,9,-3
70.76976692676544,false,-0.036621094,0.3046875,1.2744141,0.89072853,0.097355716,0.3046875,1.2744141,-3,2,0,-7,10,-11,-25,-2
70.7983169555664,false,-0.14648438,0.38134766,1.246582,0.8934057,0.08258372,0.38134766,1.246582,3,-1,-2,-2,10,-3,7,5
70.82763493061066,false,-0.15966797,0.27294922,1.2817383,0.8960753,0.05938841,0.27294922,1.2817383,-1,-6,-21,2,-1,1,3,0
70.82963800430298,false,0.08203125,0.114746094,1.2475586,0.8975516,0.03082377,0.114746094,1.2475586,0,9,5,-1,0,-4,-6,1
70.85855996608734,false,-0.10449219,-0.06982422,1.3266602,0.8962429,0.0062866397,-0.06982422,1.3266602,-7,-11,7,-3,-20,-6,-8,-5
70.88737392425537,false,0.047851562,-0.0024414062,1.2797852,0.89542055,-0.0041505517,-0.0024414062,1.2797852,1,3,13,-2,1,2,2,0
70.88976395130157,false,0.092285156,0.16113281,1.1567383,0.89452964,-0.008666976,0.16113281,1.1567383,1,0,-1,-1,3,4,2,2
70.91831493377686,false,0.09863281,0.28271484,1.0668945,0.8935129,-0.017761614,0.28271484,1.0668945,0,-1,-2,-8,3,1,3,0
70.94761598110199,false,0.1171875,0.25,1.0361328,0.89163697,-0.03497214,0.25,1.0361328,-2,0,-5,-1,-7,1,-3,-4
70.94981801509857,false,0.18603516,0.14355469,0.9941406,0.8889773,-0.056701675,0.14355469,0.9941406,0,0,1,-4,-10,-2,-3,-3
70.97832095623016,false,0.22558594,0.08886719,0.9370117,0.88570046,-0.07751634,0.08886719,0.9370117,3,-3,-1,-5,3,6,5,3
71.00878894329071,false,0.22607422,0.043945312,0.90283203,0.88222694,-0.09619411,0.043945312,0.90283203,0,0,-1,-4,-19,-6,-3,-2
71.00983893871307,false,0.2890625,0.05078125,0.8173828,0.8782918,-0.114501424,0.05078125,0.8173828,-1,0,-1,-2,-3,2,6,3
71.03839600086212,false,0.35595703,0.020019531,0.7651367,0.8737818,-0.13324013,0.020019531,0.7651367,-4,0,-4,4,48,-4,-5,-2
71.067253947258,false,0.41796875,-0.017578125,0.68115234,0.8684252,-0.1531402,-0.017578125,0.68115234,-1,-2,-1,1,18,-1,2,-1
71.0701709985733,false,0.47314453,-0.09863281,0.6220703,0.86254627,-0.17242381,-0.09863281,0.6220703,-2,0,-1,-5,-3,5,4,1
71.09828996658325,false,0.51953125,-0.13330078,0.5336914,0.8563102,-0.1901216,-0.13330078,0.5336914,2,2,0,2,-9,-4,-3,-1
71.12771999835968,false,0.5839844,-0.17822266,0.44970703,0.8500129,-0.20629308,-0.17822266,0.44970703,-3,-1,-4,-9,12,3,-1,-2
71.12969195842743,false,0.65771484,-0.18310547,0.41015625,0.8441355,-0.22021988,-0.18310547,0.41015625,-5,-3,-5,-1,18,-1,-5,-3
71.1583799123764,false,0.67529297,-0.19091797,0.4111328,0.8388862,-0.23261026,-0.19091797,0.4111328,-2,0,-2,4,-9,-6,-10,-7
71.18728399276733,false,0.7006836,-0.1899414,0.39013672,0.83371073,-0.2452916,-0.1899414,0.39013672,-2,-3,-2,0,3,-9,-2,-1
71.18980300426483,false,0.73876953,-0.23925781,0.3803711,0.828481,-0.25829762,-0.23925781,0.3803711,0,-1,0,4,-18,-1,2,0
71.2183209657669,false,0.76660156,-0.2993164,0.37597656,0.8236775,-0.2702053,-0.2993164,0.37597656,-2,-3,-10,-1,-4,-1,-3,-2
71.24759995937347,false,0.80322266,-0.33544922,0.34375,0.8193542,-0.28003553,-0.33544922,0.34375,-1,1,12,8,3,-10,0,0
71.24972200393677,true,0.8149414,-0.34375,0.32373047,0.8157168,-0.28759128,-0.34375,0.32373047,2,2,1,-2,-4,0,2,5
71.2782689332962,true,0.84472656,-0.33447266,0.2578125,0.8124293,-0.2937587,-0.33447266,0.2578125,0,-1,3,-5,-13,-1,2,1
71.30728995800018,true,0.86816406,-0.34326172,0.18798828,0.8092706,-0.29950154,-0.34326172,0.18798828,5,-2,4,5,7,0,3,8
71.30977392196655,true,0.87597656,-0.3720703,0.12451172,0.80639994,-0.304994,-0.3720703,0.12451172,3,0,-3,-4,-14,5,-4,-2
71.33864390850067,true,0.8911133,-0.39794922,0.063964844,0.8040825,-0.30932823,-0.39794922,0.063964844,-1,-1,-1,-3,-12,6,-3,-6
71.36742997169495,true,0.8955078,-0.4350586,0.03125,0.8028082,-0.31177256,-0.4350586,0.03125,1,-2,-2,-1,-12,2,3,2
71.369952917099,true,0.87939453,-0.43164062,0.013183594,0.80271995,-0.31212816,-0.43164062,0.013183594,-6,-4,1,9,41,-6,-7,-8
71.39868891239166,true,0.8286133,-0.43798828,-0.0107421875,0.8038907,-0.3105456,-0.43798828,-0.0107421875,-2,3,0,2,-28,-6,-2,1
71.42737591266632,true,0.7915039,-0.44628906,-0.03125,0.807077,-0.306522,-0.44628906,-0.03125,-2,-3,-1,0,32,1,0,1
71.42978799343109,true,0.78515625,-0.45703125,-0.041015625,0.8146814,-0.29534337,-0.45703125,-0.041015625,-6,-5,-3,-1,6,-8,-6,-4
71.45858597755432,true,0.7597656,-0.43554688,0.009277344,0.8245079,-0.27941352,-0.43554688,0.009277344,-8,1,-7,-10,-9,0,-4,-2
71.48730790615082,true,0.69384766,-0.41503906,0.11035156,0.8354947,-0.2597608,-0.41503906,0.11035156,8,6,7,-1,-4,-27,-2,13
71.48970198631287,true,0.6333008,-0.41552734,0.33691406,0.8471612,-0.235899,-0.41552734,0.33691406,14,-16,-22,-10,-15,7,6,0
71.51841199398041,true,0.5488281,-0.4399414,0.6821289,0.858396,-0.20941103,-0.4399414,0.6821289,-51,-14,-23,-13,-18,36,19,-4
71.54725098609924,true,0.50634766,-0.4248047,0.9394531,0.8669432,-0.17932124,-0.4248047,0.9394531,43,10,14,3,16,-35,-19,-73
71.54975390434265,true,0.40234375,-0.39941406,1.34375,0.87403,-0.14172469,-0.39941406,1.34375,49,25,5,8,-3,22,9,-6
71.57832193374634,true,0.30126953,-0.33154297,0.9316406,0.87664723,-0.10784903,-0.33154297,0.9316406,-3,-28,-3,25,73,-18,13,29
71.60724592208862,true,0.32128906,0.57958984,0.48632812,0.87758523,-0.039429687,0.57958984,0.48632812,-53,84,2,-2,36,67,-16,-4
71.60993492603302,true,-1.09375,1.4516602,1.4321289,0.88233274,0.016540688,1.4516602,1.4321289,9,-39,28,-7,8,-43,-25,11
71.63930094242096,true,-0.9350586,1.6728516,1.3178711,0.8906459,0.024292562,1.6728516,1.3178711,59,-18,-8,1,-50,33,63,25
71.66737699508667,true,0.18115234,0.62939453,1.5546875,0.8893682,-0.010620414,0.62939453,1.5546875,-108,97,-13,-11,-38,-81,-42,-13
71.67102491855621,true,0.45898438,-0.16796875,1.4267578,0.88301605,-0.048096817,-0.16796875,1.4267578,-24,-52,10,3,26,28,5,5
71.6985889673233,true,0.62939453,-0.45751953,1.3251953,0.88495857,-0.0585944,-0.45751953,1.3251953,30,7,-2,8,-24,-6,-2,-6
71.72740995883942,true,0.29345703,0.09082031,1.0996094,0.88673913,-0.03942962,0.09082031,1.0996094,7,-28,1,5,-19,-12,1,6
71.73005592823029,true,0.11816406,0.26611328,1.0385742,0.8882468,-0.026306216,0.26611328,1.0385742,6,-22,14,2,0,-10,3,7
71.75839698314667,true,0.20214844,0.18017578,0.9995117,0.88881356,-0.027405389,0.18017578,0.9995117,8,-8,-4,-7,-14,1,-1,-4
71.81809794902802,true,0.23632812,0.0390625,0.99072266,0.8891804,-0.035401195,0.0390625,0.99072266,0,-9,-7,-3,-4,5,-4,-1
71.81974399089813,true,0.22949219,0.026367188,0.9741211,0.88984096,-0.04260299,0.026367188,0.9741211,-8,-3,-6,-10,11,0,-5,-2
71.82313597202301,true,0.20898438,0.025390625,0.96240234,0.8905746,-0.047913168,0.025390625,0.96240234,7,-4,-4,13,-31,-10,-2,-5
71.84764194488525,true,0.22216797,0.033203125,0.9609375,0.89123565,-0.050720233,0.033203125,0.9609375,1,-2,0,-2,-8,-1,-1,-4
71.84962296485901,true,0.234375,0.07324219,0.9375,0.89171237,-0.051451985,0.07324219,0.9375,8,2,-3,-6,2,10,4,5
71.8784339427948,false,0.24316406,0.107910156,0.92626953,0.89206207,-0.051759742,0.107910156,0.92626953,1,-3,0,-5,-8,-1,-2,-2
71.90736401081085,false,0.24121094,0.1274414,0.91503906,0.89228743,-0.052185904,0.1274414,0.91503906,4,-3,4,13,13,3,-1,2
71.90986096858978,false,0.2211914,0.119628906,0.9296875,0.89264446,-0.053528152,0.119628906,0.9296875,-2,-1,-9,-10,-2,7,-1,0
71.93843495845795,false,0.2290039,0.12890625,0.9477539,0.8928902,-0.05542035,0.12890625,0.9477539,3,5,3,-3,-17,-6,5,5
71.96774697303772,false,0.2607422,0.14746094,0.96240234,0.8930178,-0.057312813,0.14746094,0.96240234,1,-3,0,-3,0,1,-4,-4
71.97025895118713,false,0.28466797,0.14892578,0.9814453,0.8931215,-0.05950888,0.14892578,0.9814453,-1,-3,-11,-2,0,3,-1,-3
71.99839198589325,false,0.31201172,0.12695312,0.98535156,0.89275974,-0.061462298,0.12695312,0.98535156,1,1,0,-13,-1,3,-1,0
72.02822291851044,false,0.34960938,0.11230469,0.97265625,0.8919982,-0.06402368,0.11230469,0.97265625,-1,0,11,9,2,0,1,1
72.03046298027039,false,0.43701172,0.083984375,0.9448242,0.890861,-0.06805357,0.083984375,0.9448242,-2,1,-7,-11,0,3,-3,-3
72.05836594104767,false,0.5029297,0.0703125,0.953125,0.889481,-0.0722669,0.0703125,0.953125,-2,-2,1,-1,2,3,0,-1
72.08776295185089,false,0.50927734,0.05810547,0.93310547,0.8878979,-0.07739428,0.05810547,0.93310547,-2,1,2,6,6,-5,-2,1
72.09032797813416,false,0.5341797,0.024414062,0.8779297,0.8858853,-0.08471881,0.024414062,0.8779297,0,0,-6,-19,-6,6,1,-2
72.1183329820633,false,0.58447266,0.0009765625,0.8652344,0.88338184,-0.09332487,0.0009765625,0.8652344,-3,-4,-1,8,1,-1,-3,-2
72.14791095256805,false,0.6352539,-0.017578125,0.8183594,0.8805086,-0.10254086,-0.017578125,0.8183594,-2,0,-1,4,-1,-9,-2,-3
72.15044093132019,false,0.64941406,-0.019042969,0.8076172,0.87755626,-0.11187652,-0.019042969,0.8076172,-4,-6,2,6,10,-4,-2,-2
72.17834901809692,false,0.6411133,-0.0053710938,0.77490234,0.8741494,-0.12139946,-0.0053710938,0.77490234,2,4,2,-1,-4,-3,-3,3
72.2079029083252,false,0.65625,-0.027832031,0.76171875,0.8702924,-0.13232303,-0.027832031,0.76171875,1,-4,-7,-7,0,0,1,-1
72.21049392223358,false,0.6616211,-0.041992188,0.7192383,0.86596316,-0.14367616,-0.041992188,0.7192383,0,-1,2,-10,7,-2,-1,-1
72.23829698562622,false,0.70751953,-0.04736328,0.7006836,0.86140525,-0.1543608,-0.04736328,0.7006836,-4,2,4,7,-10,-5,-4,-1
72.26776599884033,false,0.73291016,-0.04345703,0.67626953,0.8566909,-0.1641238,-0.04345703,0.67626953,5,1,-1,2,1,1,1,3
72.29729390144348,false,0.7504883,-0.020507812,0.6191406,0.8513778,-0.17419401,-0.020507812,0.6191406,0,-2,-6,-3,1,1,2,-1
72.29911994934082,false,0.7524414,-0.052246094,0.6381836,0.84594506,-0.18475293,-0.052246094,0.6381836,-1,-4,-3,-4,5,-2,-2,-2
72.32774698734283,false,0.77001953,-0.05078125,0.59814453,0.8398914,-0.19598076,-0.05078125,0.59814453,1,3,1,5,-1,-3,-2,-2
72.33031594753265,false,0.7993164,-0.092285156,0.5234375,0.83348984,-0.20788418,-0.092285156,0.5234375,2,2,-4,-8,-22,4,3,-1
72.41787791252136,false,0.8339844,-0.123046875,0.5253906,0.8275658,-0.21795395,-0.123046875,0.5253906,-5,-4,1,-9,10,-2,-2,-2
72.4198340177536,false,0.8276367,-0.1015625,0.4638672,0.821737,-0.22687338,-0.1015625,0.4638672,1,1,4,6,1,-3,-1,0
72.44784700870514,false,0.8618164,-0.1430664,0.39941406,0.80482394,-0.25525358,-0.1430664,0.39941406,-1,0,-1,-1,5,3,2,-1
72.45036292076111,false,0.88378906,-0.20703125,0.3857422,0.7997861,-0.2642761,-0.20703125,0.3857422,2,0,0,3,1,3,1,2
72.47833693027496,false,0.8803711,-0.1928711,0.37451172,0.7954693,-0.27099544,-0.1928711,0.37451172,-1,3,2,0,3,-3,-1,0
72.50783598423004,false,0.87890625,-0.15576172,0.37402344,0.7916765,-0.27636352,-0.15576172,0.37402344,-4,-5,-4,5,-2,-2,-4,-3
72.5104969739914,false,0.8798828,-0.15136719,0.32617188,0.7877555,-0.28276682,-0.15136719,0.32617188,-1,0,-2,-5,14,-3,2,-1
72.53850996494293,false,0.89208984,-0.20605469,0.32128906,0.7841764,-0.28936645,-0.20605469,0.32128906,-4,-4,0,-2,1,3,-1,0
72.56790101528168,false,0.8984375,-0.22607422,0.3383789,0.78172255,-0.2938173,-0.22607422,0.3383789,-2,0,-1,0,-18,-3,-1,-1
72.57074892520905,false,0.88916016,-0.19091797,0.35839844,0.7804015,-0.29608384,-0.19091797,0.35839844,-2,3,0,-5,-40,-6,0,-4
72.59833896160126,false,0.87939453,-0.1899414,0.36035156,0.7792132,-0.2985753,-0.1899414,0.36035156,7,2,7,0,-2,8,-1,3
72.62781095504761,false,0.8852539,-0.21777344,0.3544922,0.7779493,-0.30126765,-0.21777344,0.3544922,8,-3,-8,-2,12,-2,-1,4
72.63100790977478,false,0.9091797,-0.21679688,0.36767578,0.777086,-0.30285114,-0.21679688,0.36767578,-10,-5,-10,-1,7,-3,-1,-5
72.65860295295715,true,0.90625,-0.20605469,0.32128906,0.77613574,-0.30450937,-0.20605469,0.32128906,1,1,2,1,20,6,-1,1
72.68803298473358,true,0.8989258,-0.2548828,0.30322266,0.77536523,-0.3065085,-0.2548828,0.30322266,4,-1,3,4,19,0,0,3
72.69032096862793,true,0.9111328,-0.24658203,0.25439453,0.7745356,-0.30810526,-0.24658203,0.25439453,5,1,3,-5,-11,-5,-2,-1
72.71858096122742,true,0.9013672,-0.265625,0.18164062,0.77359414,-0.31017005,-0.265625,0.18164062,-1,-1,-2,-1,1,-2,-4,2
72.74775993824005,true,0.91845703,-0.3022461,0.14160156,0.7729659,-0.31165224,-0.3022461,0.14160156,-4,-2,1,-1,3,-3,0,-3
72.75033891201019,true,0.9140625,-0.32470703,0.064453125,0.7728022,-0.31206268,-0.32470703,0.064453125,-1,1,-5,1,-4,1,2,-2
72.77872395515442,true,0.9223633,-0.35791016,-0.034179688,0.7729428,-0.31139877,-0.35791016,-0.034179688,5,0,-5,-14,-45,-2,2,2
72.80775392055511,true,0.9501953,-0.42578125,-0.08935547,0.7745282,-0.30767506,-0.42578125,-0.08935547,-4,0,0,-1,9,1,-2,-2
72.81040394306183,true,0.91796875,-0.4267578,-0.041992188,0.7797551,-0.2963753,-0.4267578,-0.041992188,-1,-1,-2,0,9,-7,-8,-3
72.86732995510101,true,0.8364258,-0.3305664,0.038085938,0.78527164,-0.28356692,-0.3305664,0.038085938,-15,-3,-1,-2,-1,-8,1,-4
72.86926794052124,true,0.7558594,-0.3310547,0.13476562,0.7907309,-0.27020964,-0.3310547,0.13476562,-5,-3,-1,0,1,0,-4,-9
72.87156093120575,true,0.7104492,-0.40234375,0.24902344,0.79630435,-0.25463185,-0.40234375,0.24902344,0,26,0,1,9,8,0,9
72.89842391014099,true,0.69091797,-0.42089844,0.37890625,0.8024749,-0.23382123,-0.42089844,0.37890625,22,-7,0,0,-8,29,-1,-14
72.92791295051575,true,0.6464844,-0.41210938,0.5620117,0.80862933,-0.2060482,-0.41210938,0.5620117,-25,8,-4,1,-4,-31,-1,-15
72.93042492866516,true,0.52490234,-0.15234375,0.8730469,0.813211,-0.1708329,-0.15234375,0.8730469,20,-20,-3,0,-14,-6,-7,-3
72.95857799053192,true,0.27294922,-0.10644531,1.2915039,0.8165768,-0.13390908,-0.10644531,1.2915039,4,-23,2,-4,3,0,-3,-7
72.98769390583038,true,0.21142578,-0.0087890625,0.91308594,0.81685114,-0.099916704,-0.0087890625,0.91308594,-15,7,-13,-23,5,-36,8,3
72.99054598808289,true,0.32421875,0.44628906,0.46435547,0.81389827,-0.047057785,0.44628906,0.46435547,8,16,7,12,4,84,4,25
73.01835596561432,true,-0.4975586,0.86816406,0.8676758,0.81413466,0.008483748,0.86816406,0.8676758,-18,8,3,-9,8,-8,-5,0
73.04806196689606,true,-0.8857422,1.6967773,1.3261719,0.81903183,0.041442927,1.6967773,1.3261719,4,-15,2,9,3,-12,8,0
73.05040693283081,true,-0.15478516,1.3232422,1.2387695,0.82397056,0.03027329,1.3232422,1.2387695,-6,-15,0,3,-4,13,10,5
73.07855296134949,true,0.2524414,0.35888672,1.3862305,0.82203275,-0.012512378,0.35888672,1.3862305,-3,9,0,5,-6,-25,-10,-4
73.10776698589325,true,0.25439453,-0.14794922,1.4150391,0.8158206,-0.042603828,-0.14794922,1.4150391,4,-6,-4,-9,-2,-1,1,1
73.11047601699829,true,0.27001953,-0.29003906,1.3261719,0.8172842,-0.045838717,-0.29003906,1.3261719,2,10,0,0,5,-3,2,0
73.13915991783142,true,0.28027344,0.107910156,1.1181641,0.82137066,-0.024170527,0.107910156,1.1181641,3,-5,-2,5,5,-8,-10,0
73.16777300834656,true,0.29296875,0.45751953,1.0405273,0.8242564,-0.006469543,0.45751953,1.0405273,-4,-3,-1,3,3,-9,1,-3
73.17038094997406,true,0.2631836,0.53027344,1.0009766,0.82519305,-0.006164534,0.53027344,1.0009766,4,3,2,-1,2,2,2,2
73.19852995872498,true,0.2421875,0.21875,1.0327148,0.8253929,-0.022095114,0.21875,1.0327148,-2,1,0,-2,-7,-2,-3,0
73.22774994373322,true,0.24121094,0.072753906,1.0473633,0.8258228,-0.038147762,0.072753906,1.0473633,0,-3,-5,3,4,3,-2,0
73.2302839756012,true,0.24316406,0.08251953,0.98876953,0.82679456,-0.047363985,0.08251953,0.98876953,2,0,-4,2,3,-2,2,0
73.2586590051651,false,0.2626953,0.17236328,0.9501953,0.8281418,-0.051148497,0.17236328,0.9501953,-4,0,11,-6,-9,-5,-5,-1
73.28771090507507,false,0.25634766,0.21875,0.90527344,0.8292925,-0.05419973,0.21875,0.90527344,2,-1,-7,1,4,0,1,0
73.29036700725555,false,0.24169922,0.19970703,0.87402344,0.8301425,-0.05963159,0.19970703,0.87402344,-5,-2,5,10,-3,-1,-1,-3
73.318323969841,false,0.2602539,0.17333984,0.8520508,0.8310496,-0.06713826,0.17333984,0.8520508,3,4,-1,-2,-3,-2,2,2
73.34791195392609,false,0.31201172,0.13330078,0.8198242,0.8318425,-0.075499974,0.13330078,0.8198242,1,-2,-5,0,5,-1,1,-3
73.35046291351318,false,0.37451172,0.107421875,0.8129883,0.83268297,-0.08202931,0.107421875,0.8129883,-1,-3,-5,-12,-5,-1,1,0
73.37835490703583,false,0.4267578,0.13623047,0.79248047,0.8338284,-0.08618444,0.13623047,0.79248047,0,2,6,-3,-3,3,0,-3
73.40802597999573,false,0.45166016,0.13574219,0.7441406,0.8348524,-0.0896621,0.13574219,0.7441406,-1,-3,-6,-10,16,9,-3,-3
73.41056799888611,false,0.50097656,0.1303711,0.7602539,0.83576405,-0.09314073,0.1303711,0.7602539,-2,-3,1,-1,4,-2,-3,-1
73.43833994865417,false,0.5913086,0.08886719,0.7763672,0.8367115,-0.09832535,0.08886719,0.7763672,0,2,-4,5,-6,-4,-2,1
73.4677699804306,false,0.6586914,0.06591797,0.8071289,0.8374474,-0.10363572,0.06591797,0.8071289,-3,1,-7,18,-10,0,-1,0
73.4703459739685,false,0.6689453,0.03125,0.81640625,0.83786964,-0.10931123,0.03125,0.81640625,2,0,6,4,-1,-5,-2,1
73.49838101863861,false,0.6796875,0.015136719,0.8066406,0.838015,-0.11523469,0.015136719,0.8066406,0,-3,1,-3,-1,1,0,1
73.5279129743576,false,0.70751953,-0.005859375,0.7993164,0.8379126,-0.1218904,-0.005859375,0.7993164,-2,-3,-1,-5,-11,-2,1,-3
73.53041291236877,false,0.71435547,-0.00390625,0.8144531,0.83769333,-0.1280496,-0.00390625,0.8144531,-3,0,-2,-4,0,-2,-1,0
73.55836594104767,false,0.70654297,0.0048828125,0.79833984,0.8372961,-0.13452403,0.0048828125,0.79833984,-1,3,-2,-4,-6,-3,-1,0
73.58763194084167,false,0.71484375,0.015136719,0.80126953,0.83642966,-0.14117497,0.015136719,0.80126953,2,-1,-2,-3,2,0,3,3
73.59059691429138,false,0.72021484,0.023925781,0.7685547,0.83491784,-0.14868483,0.023925781,0.7685547,1,1,-4,-2,8,1,-2,0
73.64745700359344,false,0.74609375,0.020507812,0.75146484,0.8332515,-0.15643302,0.020507812,0.75146484,-1,-1,-1,-6,-6,-4,-1,-4
73.64918601512909,false,0.7480469,0.009277344,0.7519531,0.83141136,-0.16412166,0.009277344,0.7519531,3,0,9,-3,-10,0,-2,0
73.65167498588562,false,0.7519531,0.0043945312,0.7211914,0.82927954,-0.17175187,0.0043945312,0.7211914,-1,-4,-7,-7,0,0,1,-1
73.67827594280243,false,0.7729492,-0.00048828125,0.72265625,0.8269108,-0.17950581,-0.00048828125,0.72265625,1,0,-1,2,-5,-5,1,2
73.70772397518158,false,0.7636719,0.013671875,0.7036133,0.824238,-0.18744335,0.013671875,0.7036133,-3,-4,-5,2,30,4,-3,-4
73.71015501022339,false,0.7792969,0.0034179688,0.65527344,0.82118136,-0.19671975,0.0034179688,0.65527344,0,0,2,-2,2,-1,-1,2
73.73835492134094,false,0.76953125,-0.04296875,0.63378906,0.81811047,-0.20672487,-0.04296875,0.63378906,0,1,-1,1,-3,-4,-4,-3
73.76777791976929,false,0.7807617,-0.055664062,0.6376953,0.8151194,-0.21630722,-0.055664062,0.6376953,-4,1,-13,6,3,0,-1,-2
73.77047097682953,false,0.7885742,-0.059570312,0.61328125,0.8121613,-0.2253325,-0.059570312,0.61328125,-3,-2,3,2,-1,-2,-1,-2
73.79835796356201,false,0.7792969,-0.06933594,0.5698242,0.808986,-0.23491415,-0.06933594,0.5698242,-2,-5,3,1,-10,-1,-1,-1
73.8277850151062,false,0.7919922,-0.107910156,0.5498047,0.80573094,-0.24481378,-0.107910156,0.5498047,-2,7,-4,3,3,-2,-1,-2
73.83047294616699,false,0.7988281,-0.12060547,0.51953125,0.8028645,-0.25329843,-0.12060547,0.51953125,5,-3,1,-5,-15,0,0,-1
73.85831391811371,false,0.79248047,-0.1328125,0.4711914,0.80033463,-0.26104105,-0.1328125,0.4711914,-2,1,1,-2,9,-5,2,-1
73.88801300525665,false,0.81689453,-0.14404297,0.44482422,0.79791015,-0.2681266,-0.14404297,0.44482422,-1,-1,-6,7,-2,-1,-1,-1
73.8905189037323,false,0.83251953,-0.1484375,0.45947266,0.7960083,-0.27392158,-0.1484375,0.45947266,1,-1,2,0,-3,3,2,2
73.9183669090271,false,0.8149414,-0.14746094,0.4267578,0.79430944,-0.2796013,-0.14746094,0.4267578,-2,-12,-1,-7,26,13,-4,-4
73.94771194458008,false,0.8388672,-0.19238281,0.3930664,0.79236,-0.28570613,-0.19238281,0.3930664,-5,7,-1,-9,0,-7,-3,-1
73.95037698745728,false,0.8515625,-0.24267578,0.3544922,0.7909052,-0.2905316,-0.24267578,0.3544922,-3,3,2,-2,-3,0,1,1
74.00756001472473,true,0.8413086,-0.24804688,0.29345703,0.78993386,-0.2938295,-0.24804688,0.29345703,3,-1,1,2,-31,2,8,4
74.00939798355103,true,0.86865234,-0.24804688,0.25634766,0.7891069,-0.29601425,-0.24804688,0.25634766,1,-2,9,7,8,-8,0,1
74.01238298416138,true,0.87402344,-0.25146484,0.26123047,0.78856236,-0.29723674,-0.25146484,0.26123047,-1,-1,-1,2,-5,-4,-1,-2
74.03945899009705,true,0.8588867,-0.2578125,0.27294922,0.788248,-0.29778257,-0.2578125,0.27294922,1,-1,-1,3,-28,0,1,2
74.06860995292664,true,0.83740234,-0.26367188,0.27441406,0.7879959,-0.29790163,-0.26367188,0.27441406,-2,0,-5,-15,-13,2,-3,-3
74.0707619190216,true,0.85009766,-0.27392578,0.25146484,0.787642,-0.29754007,-0.27392578,0.25146484,-3,0,-1,4,10,-2,-2,-3
74.09896290302277,true,0.86279297,-0.3173828,0.20996094,0.78752124,-0.29601473,-0.3173828,0.20996094,-2,-4,0,4,20,5,0,0
74.1284989118576,true,0.8564453,-0.3310547,0.18847656,0.78808933,-0.2921155,-0.3310547,0.18847656,1,2,-2,-6,-16,-2,2,-2
74.13100290298462,true,0.8457031,-0.32128906,0.15966797,0.7901119,-0.2832684,-0.32128906,0.15966797,0,3,1,2,-40,0,-3,-2
74.15921199321747,true,0.82958984,-0.31298828,0.16552734,0.79240227,-0.27306536,-0.31298828,0.16552734,0,-5,1,3,8,-1,4,2
74.18836295604706,true,0.7866211,-0.32763672,0.22460938,0.7953936,-0.26073673,-0.32763672,0.22460938,7,1,-4,-5,8,-7,-2,-3
74.19106197357178,true,0.7182617,-0.35595703,0.3486328,0.7989292,-0.24529386,-0.35595703,0.3486328,-4,21,4,0,1,-4,-7,6
74.21920490264893,true,0.62060547,-0.33447266,0.52441406,0.8036657,-0.22455275,-0.33447266,0.52441406,-9,35,-10,0,3,-20,-8,-9
74.24861800670624,true,0.54833984,-0.31201172,0.7675781,0.80894494,-0.19811644,-0.31201172,0.7675781,27,-53,22,9,-4,-14,-2,96
74.25102591514587,true,0.4819336,-0.21582031,0.98095703,0.8133348,-0.1656454,-0.21582031,0.98095703,2,11,5,-5,-24,2,17,-37
74.27930295467377,true,0.26171875,-0.09033203,1.3178711,0.8168106,-0.12408099,-0.09033203,1.3178711,-26,-6,-14,4,58,15,-12,-44
74.30832898616791,true,0.12792969,0.12695312,1.2060547,0.8183826,-0.08349846,0.12695312,1.2060547,45,-20,-4,0,-8,-38,-25,-13
74.31077694892883,true,0.23242188,0.13134766,0.53027344,0.8126957,-0.047852304,0.13134766,0.53027344,-5,30,15,5,-3,-27,21,11
74.33876299858093,true,-0.33935547,0.61035156,0.6855469,0.806438,-0.0029296167,0.61035156,0.6855469,-21,-15,-14,-22,49,16,3,-12
74.36842691898346,true,-0.8930664,1.3105469,1.2441406,0.80719477,0.026489416,1.3105469,1.2441406,-8,-45,-13,-16,-5,12,-19,-19
74.37093901634216,true,-0.37158203,1.1049805,1.2158203,0.8096325,0.033203173,1.1049805,1.2158203,1,-15,-17,-6,-29,9,6,9
74.39912796020508,true,0.1459961,0.29003906,1.3339844,0.8082003,0.008728392,0.29003906,1.3339844,23,41,1,15,-23,6,3,4
74.42852294445038,true,0.21777344,-0.119140625,1.3139648,0.8048734,-0.003662122,-0.119140625,1.3139648,-15,-17,0,4,2,-15,-7,1
74.43096399307251,true,0.22265625,-0.048339844,1.1630859,0.80701405,0.00738532,-0.048339844,1.1630859,0,23,17,6,14,5,4,1
74.4592399597168,true,0.16455078,0.39453125,1.0107422,0.8084868,0.026978044,0.39453125,1.0107422,-8,-6,-7,-15,-25,8,-1,-6
74.48835396766663,true,0.1508789,0.5415039,0.9848633,0.8089693,0.036072195,0.5415039,0.9848633,-7,-2,1,2,8,15,3,2
74.49081492424011,true,0.15527344,0.25976562,1.0668945,0.80969477,0.028991785,0.25976562,1.0668945,0,0,-6,-10,-31,1,8,4
74.51954591274261,true,0.16357422,0.080078125,1.0878906,0.8109353,0.019592822,0.080078125,1.0878906,5,3,-2,6,6,-3,4,2
74.54841697216034,true,0.14111328,0.07714844,1.0639648,0.81239045,0.015930422,0.07714844,1.0639648,-5,-1,-2,4,8,3,1,-1
74.55103397369385,true,0.11279297,0.18798828,1.034668,0.8135837,0.017394701,0.18798828,1.034668,-4,0,1,4,0,1,-3,-2
74.57923197746277,true,0.07861328,0.24414062,1.0141602,0.81450194,0.018981649,0.24414062,1.0141602,-2,-2,0,-4,-1,-2,-3,-2
74.60836696624756,true,0.07324219,0.25,0.99902344,0.8153754,0.018371733,0.25,0.99902344,-4,-6,3,6,2,0,-3,-1
74.61083495616913,true,0.107421875,0.23583984,0.9873047,0.81631017,0.01617483,0.23583984,0.9873047,0,2,0,-3,4,-5,0,0
74.63891291618347,false,0.13183594,0.22705078,0.97509766,0.81721336,0.013733139,0.22705078,0.97509766,-2,-4,-2,-5,0,-4,-1,0
74.66861593723297,false,0.114746094,0.23388672,0.9794922,0.8181554,0.01153535,0.23388672,0.9794922,-2,1,2,0,3,5,0,-1
74.6707409620285,false,0.09863281,0.2475586,0.9658203,0.8192666,0.009582423,0.2475586,0.9658203,1,1,1,-7,0,0,0,0
74.69908797740936,false,0.091796875,0.23291016,0.94384766,0.82081926,0.007873712,0.23291016,0.94384766,-2,0,-3,3,3,0,1,-1
74.72840797901154,false,0.083496094,0.21875,0.92333984,0.8225538,0.0066526947,0.21875,0.92333984,-1,0,-4,-4,1,-5,-2,1
74.73141992092133,false,0.087402344,0.21777344,0.92871094,0.8245677,0.00488271,0.21777344,0.92871094,-2,-2,0,10,0,-6,0,-3
74.75903499126434,false,0.12158203,0.22216797,0.91748047,0.8266748,0.0018921235,0.22216797,0.91748047,2,-1,1,-3,-3,-1,-5,0
74.78838896751404,false,0.16748047,0.21777344,0.92089844,0.82875913,-0.0012207382,0.21777344,0.92089844,0,-2,-2,-3,-5,0,0,-1
74.79093897342682,false,0.19970703,0.1977539,0.92089844,0.831144,-0.0039674197,0.1977539,0.92089844,-2,-1,-1,3,1,-3,1,-2
74.81907093524933,false,0.2055664,0.17285156,0.92871094,0.83391815,-0.006408652,0.17285156,0.92871094,-2,1,1,-1,-2,0,-1,-1
74.84773194789886,false,0.2524414,0.16113281,0.94384766,0.8366813,-0.008484002,0.16113281,0.94384766,-2,1,3,9,7,4,-2,-1
74.8503429889679,false,0.34960938,0.17138672,0.9604492,0.8392846,-0.010803096,0.17138672,0.9604492,-1,1,13,2,-7,1,-3,0
74.87841498851776,false,0.45654297,0.16308594,0.9736328,0.84150183,-0.014526542,0.16308594,0.9736328,0,-4,-10,-14,-2,-4,1,-2
74.9077320098877,false,0.49072266,0.13623047,0.9916992,0.84362197,-0.019286973,0.13623047,0.9916992,-2,0,0,0,8,-4,-3,-2
74.93735492229462,false,0.5361328,0.123535156,1.0107422,0.845474,-0.024231387,0.123535156,1.0107422,0,0,-2,-8,-17,8,1,-4
74.93914794921875,false,0.58691406,0.12695312,1.0493164,0.8470555,-0.02954135,0.12695312,1.0493164,-2,0,-10,1,14,9,-1,0
74.96777391433716,false,0.59765625,0.1303711,1.0410156,0.848322,-0.036193606,0.1303711,1.0410156,1,0,4,1,-8,-1,2,2
74.99738490581512,false,0.60058594,0.12939453,1.0493164,0.8491947,-0.044068035,0.12939453,1.0493164,3,1,-5,-2,6,-6,-5,-1
74.99909496307373,false,0.6010742,0.119628906,1.0390625,0.8495876,-0.053770594,0.119628906,1.0390625,0,0,-5,-4,-16,-1,-1,-2
75.0277179479599,false,0.62158203,0.1328125,1.0073242,0.84943366,-0.064453684,0.1328125,1.0073242,-4,0,11,31,16,-4,3,1
75.05765199661255,false,0.625,0.13916016,0.9819336,0.84880155,-0.07586542,0.13916016,0.9819336,-2,-2,-7,0,-9,-7,-3,-3
75.05920600891113,false,0.60253906,0.13574219,0.94921875,0.8477901,-0.08844118,0.13574219,0.94921875,0,1,0,-12,-1,-2,1,1
75.08765292167664,false,0.5800781,0.119140625,0.92822266,0.8462093,-0.10278537,0.119140625,0.92822266,4,2,-3,1,5,-2,2,3
75.11710691452026,false,0.56591797,0.11230469,0.8964844,0.8439343,-0.118408374,0.11230469,0.8964844,-11,1,-1,2,7,0,-3,-3
75.11923801898956,false,0.5703125,0.099609375,0.8222656,0.8411728,-0.13537377,0.099609375,0.8222656,0,-1,14,-9,4,-6,-2,-2
75.14798700809479,false,0.60302734,0.06298828,0.7524414,0.83768207,-0.15313256,0.06298828,0.7524414,-5,-4,-3,2,-7,-2,-1,-3
75.17727994918823,false,0.6298828,0.03564453,0.71191406,0.83369964,-0.1708416,0.03564453,0.71191406,-5,-4,-10,-4,-5,2,-3,-7
75.17915391921997,false,0.6376953,-0.011230469,0.59375,0.82916397,-0.18896516,-0.011230469,0.59375,-6,-2,-6,-4,-11,0,1,-1
75.20799791812897,false,0.65625,-0.049316406,0.49316406,0.82397354,-0.20733616,-0.049316406,0.49316406,4,0,-3,-2,-12,-2,-3,2
75.2380999326706,false,0.6933594,-0.13867188,0.4716797,0.81861424,-0.22436817,-0.13867188,0.4716797,0,-3,-3,0,-4,7,1,-1
75.23928093910217,false,0.7138672,-0.14501953,0.3955078,0.81354594,-0.23919924,-0.14501953,0.3955078,3,-2,4,5,7,2,2,2
75.26769697666168,false,0.7597656,-0.18310547,0.27929688,0.8088483,-0.25274983,-0.18310547,0.27929688,5,9,4,7,-19,-5,8,12
75.2977579832077,false,0.8041992,-0.23046875,0.24072266,0.80427414,-0.26501924,-0.23046875,0.24072266,-2,-2,-12,-17,-68,-5,-6,-8
75.29923701286316,true,0.8071289,-0.23095703,0.23583984,0.8008978,-0.27386284,-0.23095703,0.23583984,-1,-4,-1,-5,41,1,-5,-4
75.32874596118927,true,0.7895508,-0.20898438,0.22607422,0.7981791,-0.28119683,-0.20898438,0.22607422,-10,-2,-23,-10,-1,-2,-5,-8
75.35756492614746,true,0.7788086,-0.2705078,0.19042969,0.79577047,-0.28826693,-0.2705078,0.19042969,5,0,6,6,23,1,-2,2
75.35923290252686,true,0.8383789,-0.3149414,0.14892578,0.79362833,-0.294063,-0.3149414,0.14892578,2,2,6,-1,-24,-2,5,5
75.38776099681854,true,0.86279297,-0.32763672,0.12695312,0.7922392,-0.29699814,-0.32763672,0.12695312,-2,-8,-5,-7,53,5,1,-4
75.41731190681458,true,0.8613281,-0.32714844,0.15527344,0.79247415,-0.29705572,-0.32714844,0.15527344,0,-2,1,-4,-10,0,-4,1
75.4191609621048,true,0.84228516,-0.29052734,0.1821289,0.79365206,-0.29498735,-0.29052734,0.1821289,2,4,4,3,-77,-5,-1,-1
75.44789099693298,true,0.83496094,-0.29882812,0.203125,0.7949723,-0.29278174,-0.29882812,0.203125,4,3,0,-6,-39,1,-1,2
75.50789391994476,true,0.85253906,-0.33154297,0.19726562,0.7962078,-0.29065093,-0.33154297,0.19726562,-2,-1,1,4,40,-2,-1,-1
75.50980699062347,true,0.8691406,-0.36572266,0.1821289,0.7977849,-0.28722942,-0.36572266,0.1821289,-2,1,4,8,5,-8,1,1
75.51218497753143,true,0.87939453,-0.39453125,0.20019531,0.80066013,-0.27935824,-0.39453125,0.20019531,-3,0,-4,-10,19,-4,-6,-5
75.53789794445038,true,0.8364258,-0.39013672,0.23046875,0.80439836,-0.26908895,-0.39013672,0.23046875,-7,-3,-1,-1,-11,-6,-1,-1
75.56743597984314,true,0.7832031,-0.38476562,0.30322266,0.80950445,-0.25555268,-0.38476562,0.30322266,-4,1,-1,3,11,-3,-2,-1
75.56901490688324,true,0.72265625,-0.38916016,0.40722656,0.81553924,-0.23815551,-0.38916016,0.40722656,-10,-23,-1,-3,-7,-6,4,-4
75.59727895259857,true,0.6533203,-0.3564453,0.6640625,0.82281727,-0.21472229,-0.3564453,0.6640625,-27,-14,-10,5,0,22,25,-45
75.59904992580414,true,0.58691406,-0.3149414,0.90185547,0.82970184,-0.18768083,-0.3149414,0.90185547,48,63,2,3,-11,-12,18,101
75.62775897979736,true,0.4765625,-0.29785156,1.1772461,0.83599275,-0.15344132,-0.29785156,1.1772461,52,-27,-8,-13,-27,-19,-11,21
75.65729796886444,true,0.33935547,-0.14111328,1.3696289,0.8417341,-0.108520284,-0.14111328,1.3696289,-7,-46,-2,-1,32,18,6,-3
75.65906798839569,true,0.2783203,0.32617188,0.72314453,0.84048176,-0.06250206,0.32617188,0.72314453,-32,71,5,12,9,-14,14,6
75.68820095062256,true,0.104003906,0.58154297,0.19140625,0.834732,-0.0111086015,0.58154297,0.19140625,47,42,6,-13,-29,33,0,8
75.71731698513031,true,-1.0263672,1.4267578,1.1616211,0.8349143,0.028503912,1.4267578,1.1616211,-7,-35,3,6,28,15,-23,-32
75.71918296813965,true,-0.73339844,1.722168,1.25,0.84223485,0.02642856,1.722168,1.25,-21,-80,-1,-9,21,-20,8,-16
75.77813601493835,true,0.41992188,0.49267578,1.1547852,0.8435673,-0.017517097,0.49267578,1.1547852,-5,90,4,1,-31,-2,-21,-17
75.7798969745636,true,0.6533203,-0.27441406,1.3359375,0.8352793,-0.04980547,-0.27441406,1.3359375,1,-33,-7,1,-10,-17,-3,-3
75.80773794651031,true,0.33496094,0.08496094,0.9633789,0.8403182,-0.025207104,0.08496094,0.9633789,23,-10,7,7,-29,-22,-12,-7
75.83745300769806,true,0.29296875,0.5361328,0.9082031,0.84196883,-0.006530675,0.5361328,0.9082031,-15,-43,2,1,8,-12,-3,-3
75.83915996551514,true,0.30664062,0.45410156,0.92626953,0.8419876,-0.007995678,0.45410156,0.92626953,-29,-23,-3,-8,7,3,-9,-20
75.86788499355316,true,0.31982422,0.087402344,1.0292969,0.8418613,-0.02044686,0.087402344,1.0292969,1,-7,-5,-1,-3,-5,-3,3
75.89727699756622,true,0.2841797,0.019042969,1.0058594,0.84246564,-0.02764884,0.019042969,1.0058594,-6,-8,-5,-5,15,5,3,1
75.8990650177002,true,0.2631836,0.08203125,0.96240234,0.84355444,-0.027953688,0.08203125,0.96240234,-1,-1,-1,-1,-4,-8,1,4
75.92770993709564,true,0.23291016,0.2290039,0.9506836,0.84406424,-0.023987073,0.2290039,0.9506836,-7,-1,-5,-4,-22,-7,0,0
75.95734000205994,true,0.19384766,0.29296875,0.9169922,0.8443369,-0.021483779,0.29296875,0.9169922,0,-4,-1,13,5,6,0,3
75.95905697345734,false,0.1850586,0.25878906,0.890625,0.8448914,-0.021850115,0.25878906,0.890625,2,-1,2,8,0,0,1,0
75.9877519607544,false,0.18652344,0.25683594,0.88916016,0.8453805,-0.022338407,0.25683594,0.88916016,-1,-2,-9,-5,-4,3,0,2
76.01731395721436,false,0.1821289,0.25732422,0.87402344,0.84609294,-0.023010897,0.25732422,0.87402344,0,0,-1,-3,-6,3,-2,-3
76.01923394203186,false,0.18798828,0.2446289,0.87109375,0.8471927,-0.023743369,0.2446289,0.87109375,0,-2,0,-1,-3,-5,0,3
76.04781401157379,false,0.20019531,0.21582031,0.8828125,0.8488188,-0.024108967,0.21582031,0.8828125,-4,-1,-8,-6,-1,-3,-3,-4
76.07750594615936,false,0.1977539,0.20507812,0.88378906,0.8509059,-0.023926198,0.20507812,0.88378906,0,-1,3,-2,3,-4,-2,1
76.07922697067261,false,0.22363281,0.1899414,0.86816406,0.8534383,-0.023253951,0.1899414,0.86816406,-1,-1,2,-7,4,1,1,0
76.10782098770142,false,0.25683594,0.203125,0.85302734,0.8563354,-0.021728823,0.203125,0.85302734,1,0,-8,-13,5,0,1,1
76.13735890388489,false,0.28564453,0.23535156,0.85791016,0.8595996,-0.019408738,0.23535156,0.85791016,-1,3,5,10,0,4,-1,-4
76.13918590545654,false,0.3017578,0.23486328,0.859375,0.863336,-0.017272824,0.23486328,0.859375,3,1,2,1,-11,-1,-2,2
76.1679949760437,false,0.31347656,0.21533203,0.8652344,0.86754483,-0.015258633,0.21533203,0.8652344,-4,-3,-3,1,-5,-1,5,-4
76.19739401340485,false,0.33984375,0.1616211,0.87597656,0.87213314,-0.013610868,0.1616211,0.87597656,0,1,-1,0,-25,-7,-6,-2
76.19905292987823,false,0.4375,0.17285156,0.9067383,0.8764708,-0.011657794,0.17285156,0.9067383,-1,-2,3,0,16,3,-1,0
76.22793090343475,false,0.4584961,0.18310547,0.94189453,0.8807956,-0.007812476,0.18310547,0.94189453,1,1,-1,-3,-3,-2,-1,0
76.25756800174713,false,0.43945312,0.19726562,0.96435547,0.885331,-0.002990777,0.19726562,0.96435547,3,-1,3,-5,-12,4,0,2
76.25915896892548,false,0.4345703,0.15820312,1.0039062,0.8901275,0.00067137973,0.15820312,1.0039062,-1,-4,-2,8,10,0,2,1
76.28774201869965,false,0.4951172,0.13183594,1.065918,0.8946548,0.0036010803,0.13183594,1.065918,-1,0,-5,-4,-3,-2,0,-1
76.31776297092438,false,0.52978516,0.1459961,1.0844727,0.8987478,0.006286657,0.1459961,1.0844727,-2,-6,0,6,0,-9,-4,-2
76.3193029165268,false,0.50683594,0.19335938,1.0991211,0.9027332,0.008117884,0.19335938,1.0991211,-2,0,-3,-4,-8,1,-3,-1
76.34797191619873,false,0.48876953,0.22460938,1.1269531,0.90688187,0.007751649,0.22460938,1.1269531,0,-2,2,0,7,2,0,-1
76.37732195854187,false,0.4609375,0.17822266,1.1796875,0.9108904,0.003784187,0.17822266,1.1796875,-1,-3,-12,-6,20,2,1,2
76.37911295890808,false,0.42285156,0.15234375,1.1870117,0.9143411,-0.0025635732,0.15234375,1.1870117,0,-1,4,9,-5,-3,-1,0
76.43860101699829,false,0.4272461,0.10449219,1.1547852,0.91728044,-0.010864057,0.10449219,1.1547852,3,3,-2,-1,-17,2,1,-1
76.4404969215393,false,0.41552734,0.092285156,1.1494141,0.919563,-0.020019691,0.092285156,1.1494141,2,-1,-14,-7,2,3,0,2
76.46787798404694,false,0.3959961,0.059570312,1.0356445,0.92201376,-0.03997875,0.059570312,1.0356445,-2,1,6,-10,5,-4,-2,-4
76.49733293056488,false,0.40478516,0.018554688,0.95751953,0.9224008,-0.0510885,0.018554688,0.95751953,-2,2,1,6,7,-3,0,-1
76.49914991855621,false,0.4404297,-0.014160156,0.9580078,0.92205614,-0.062011585,-0.014160156,0.9580078,-1,3,2,-3,-8,0,0,-4
76.5278890132904,false,0.44433594,-0.027832031,0.89208984,0.9207122,-0.07366918,-0.027832031,0.89208984,-1,-2,-2,1,-10,-3,0,0
76.55745601654053,false,0.484375,-0.057128906,0.8457031,0.91859937,-0.086610794,-0.057128906,0.8457031,-1,-3,-1,-3,0,1,-5,-1
76.55917596817017,false,0.52978516,-0.07714844,0.8022461,0.91569966,-0.09991337,-0.07714844,0.8022461,-2,-3,-9,8,6,-1,-1,-2
76.58796799182892,false,0.5678711,-0.09667969,0.74853516,0.912394,-0.11279043,-0.09667969,0.74853516,0,0,7,1,-1,-3,0,1
76.61769700050354,false,0.6088867,-0.12548828,0.7216797,0.9090202,-0.1240877,-0.12548828,0.7216797,0,1,-1,0,-9,-4,0,-1
76.61913299560547,false,0.6333008,-0.072753906,0.7104492,0.90548915,-0.13300039,-0.072753906,0.7104492,-2,2,0,6,6,-6,-1,1
76.647794008255,false,0.68359375,-0.05078125,0.70410156,0.9014393,-0.14257987,-0.05078125,0.70410156,-4,5,17,3,-1,-5,-4,-3
76.67732095718384,false,0.7211914,-0.07519531,0.6484375,0.8965694,-0.15332441,-0.07519531,0.6484375,0,-4,-2,-8,17,8,2,1
76.67923092842102,false,0.7167969,-0.119628906,0.61328125,0.89148366,-0.16375808,-0.119628906,0.61328125,3,2,1,4,-38,-4,3,2
76.70784890651703,false,0.7080078,-0.123535156,0.6020508,0.8867119,-0.17205678,-0.123535156,0.6020508,3,-1,-6,-1,3,-4,-3,0
76.73745894432068,false,0.73046875,-0.12841797,0.60009766,0.8819978,-0.17950007,-0.12841797,0.60009766,-4,-2,2,-3,5,0,-3,-5
76.73914790153503,false,0.76123047,-0.14794922,0.5371094,0.8766074,-0.1871992,-0.14794922,0.5371094,2,-3,8,2,-2,-2,2,2
76.7677139043808,false,0.7988281,-0.19238281,0.45263672,0.8704919,-0.19561958,-0.19238281,0.45263672,-2,-1,-1,8,31,4,5,2
76.79793691635132,true,0.83251953,-0.20703125,0.3779297,0.8645794,-0.20184709,-0.20703125,0.3779297,0,-1,-3,3,2,-3,-4,0
76.79929101467133,true,0.82421875,-0.2319336,0.30615234,0.85961825,-0.20538308,-0.2319336,0.30615234,0,2,-9,-10,-62,1,-2,-2
76.82775795459747,true,0.8540039,-0.22802734,0.25585938,0.85571766,-0.20605583,-0.22802734,0.25585938,2,-4,-6,4,8,3,3,1
76.85782098770142,true,0.86816406,-0.17480469,0.28222656,0.8532093,-0.20373508,-0.17480469,0.28222656,-2,-5,-10,-4,-1,2,-2,-1
76.85929501056671,true,0.85253906,-0.14990234,0.31835938,0.8515582,-0.20135397,-0.14990234,0.31835938,-6,-1,-6,-9,9,4,-5,-6
76.88794791698456,true,0.8334961,-0.13427734,0.3310547,0.8508116,-0.19866513,-0.13427734,0.3310547,-2,-3,6,3,24,-7,-2,1
76.91732394695282,true,0.79003906,-0.1665039,0.30810547,0.850879,-0.19604214,-0.1665039,0.30810547,0,0,-2,0,7,-1,3,-1
76.91906297206879,true,0.7919922,-0.21289062,0.24072266,0.851732,-0.1926849,-0.21289062,0.24072266,1,4,-1,2,-33,-6,4,2
76.9479730129242,true,0.82910156,-0.2529297,0.16601562,0.8539922,-0.18682605,-0.2529297,0.16601562,-3,-2,-4,-5,2,0,-3,-3
76.97732591629028,true,0.8359375,-0.2944336,0.10449219,0.8579479,-0.17882815,-0.2944336,0.10449219,0,2,2,6,21,-5,-1,2
76.97910797595978,true,0.83251953,-0.30859375,0.09667969,0.8639662,-0.17041284,-0.30859375,0.09667969,0,-2,0,-2,-21,3,-2,-2
77.00792098045349,true,0.81396484,-0.3305664,0.12158203,0.8733253,-0.16260403,-0.3305664,0.12158203,1,-4,-1,6,20,5,9,6
77.03732097148895,true,0.78125,-0.38085938,0.19384766,0.8840812,-0.15783457,-0.38085938,0.19384766,3,-1,3,5,9,-1,1,4
77.03913998603821,true,0.6694336,-0.4111328,0.34716797,0.8958131,-0.15625001,-0.4111328,0.34716797,-45,-10,-6,-4,4,-5,-8,-23
77.06782591342926,true,0.5493164,-0.49072266,0.6098633,0.90835977,-0.15588972,-0.49072266,0.6098633,3,3,-7,-10,-5,12,0,-16
77.09753799438477,true,0.47460938,-0.5488281,0.9526367,0.92165434,-0.15039445,-0.5488281,0.9526367,-8,-24,2,-12,-17,-21,-43,2
77.0991770029068,true,0.43603516,-0.6972656,1.0898438,0.93484306,-0.13635671,-0.6972656,1.0898438,61,-12,3,19,18,-10,29,-3
77.12791097164154,true,0.29248047,-0.703125,1.2915039,0.94848996,-0.103577055,-0.703125,1.2915039,10,-59,9,14,34,26,-5,17
77.15768897533417,true,0.13964844,-0.5131836,0.94189453,0.9591047,-0.055724997,-0.5131836,0.94189453,3,33,-2,9,-16,12,19,26
77.15926194190979,true,0.17919922,0.5722656,0.21289062,0.9652831,0.012695472,0.5722656,0.21289062,-4,19,-2,-6,-48,-4,-5,-9
77.18836295604706,true,-0.86083984,1.0239258,0.79833984,0.9691132,0.05890245,1.0239258,0.79833984,11,13,-5,-1,0,-4,2,6
77.21738600730896,true,-1.1567383,1.6489258,1.3706055,0.9736609,0.065065354,1.6489258,1.3706055,-41,-7,-9,-13,11,6,-17,-18
77.21919000148773,true,-0.17529297,0.8256836,1.2275391,0.9773225,0.02386542,0.8256836,1.2275391,-10,28,-4,-8,-13,-5,15,7
77.24774193763733,true,0.28710938,-0.2368164,1.3696289,0.97653997,-0.031922646,-0.2368164,1.3696289,1,12,0,3,22,-25,-19,-4
77.27743995189667,true,0.30371094,-0.68847656,1.4082031,0.97541726,-0.051453397,-0.68847656,1.4082031,-1,0,2,2,-4,2,5,-3
77.27907693386078,true,0.21435547,-0.30322266,1.1708984,0.97710717,-0.028198108,-0.30322266,1.1708984,8,-5,-8,-19,-46,3,5,-2
77.30785894393921,true,0.095214844,0.28173828,1.0141602,0.9780901,0.0009765642,0.28173828,1.0141602,2,-5,-2,-4,8,4,-1,-1
77.33771395683289,true,0.13769531,0.4165039,1.0097656,0.9782146,0.011962942,0.4165039,1.0097656,-1,0,0,-7,3,11,0,0
77.33919191360474,true,0.19091797,0.091796875,1.0712891,0.9781436,0.0009765567,0.091796875,1.0712891,0,4,0,2,1,-3,1,-1
77.3680249452591,true,0.19140625,-0.104003906,1.0859375,0.978025,-0.012451142,-0.104003906,1.0859375,0,3,3,0,9,-4,1,0
77.39733099937439,true,0.203125,-0.125,1.0795898,0.9779612,-0.019042868,-0.125,1.0795898,-3,1,1,2,2,-12,0,-2
77.39909291267395,true,0.18896484,-0.0073242188,1.0317383,0.97802234,-0.01739493,-0.0073242188,1.0317383,-2,-2,-2,-2,0,-6,1,-3
77.42773699760437,true,0.15332031,0.076660156,1.0039062,0.9781711,-0.013672179,0.076660156,1.0039062,-1,-2,2,-5,-12,1,-1,0
77.45782792568207,true,0.14111328,0.10595703,0.9916992,0.9781809,-0.01208535,0.10595703,0.9916992,-1,-5,-1,0,3,-8,-1,0
77.4591099023819,true,0.14160156,0.0859375,0.99658203,0.978036,-0.014099246,0.0859375,0.99658203,1,0,-3,-1,2,4,1,-2
77.48818397521973,true,0.1352539,0.053710938,1.0097656,0.9777019,-0.017945085,0.053710938,1.0097656,-2,-2,-1,7,3,-4,-1,0
77.51732993125916,true,0.11279297,0.03466797,0.9916992,0.97729003,-0.021972546,0.03466797,0.9916992,1,1,-1,-2,-2,1,-1,1
77.51928293704987,true,0.10986328,0.013671875,0.9716797,0.97678393,-0.025452659,0.013671875,0.9716797,-3,-3,-15,-8,0,1,-2,-1
77.54790890216827,false,0.103027344,0.01953125,0.9604492,0.976334,-0.026916934,0.01953125,0.9604492,3,1,3,-4,2,0,-1,-1
77.57750797271729,false,0.09667969,0.037109375,0.9560547,0.97591203,-0.027222265,0.037109375,0.9560547,-3,-1,1,1,2,-2,1,-1
77.63811898231506,false,0.14453125,0.053222656,0.94189453,0.9753482,-0.027649106,0.053222656,0.94189453,-2,-1,-1,5,7,-1,1,-1
77.64062798023224,false,0.203125,0.027832031,0.94921875,0.9745573,-0.029297143,0.027832031,0.94921875,3,1,-4,-2,-1,0,0,0
77.66731691360474,false,0.21875,-0.016113281,0.9121094,0.9735357,-0.032654647,-0.016113281,0.9121094,-1,2,18,-2,3,0,-1,0
77.66783201694489,false,0.2553711,-0.040039062,0.9477539,0.9715225,-0.036927257,-0.040039062,0.9477539,-3,-4,-15,5,-2,1,-3,-2
77.69739496707916,false,0.36669922,-0.020996094,0.93603516,0.9702468,-0.039124824,-0.020996094,0.93603516,3,1,9,5,-2,-1,2,2
77.69918191432953,false,0.4482422,-0.0009765625,0.91015625,0.9685962,-0.041383088,-0.0009765625,0.91015625,-1,3,-1,-4,-1,-5,-2,-2
77.72787296772003,false,0.4482422,-0.05078125,0.9082031,0.96682626,-0.044251833,-0.05078125,0.9082031,-4,-3,-3,-5,1,6,-2,-2
77.75741493701935,false,0.44335938,-0.076171875,0.9243164,0.9651147,-0.04614386,-0.076171875,0.9243164,1,-5,-19,6,3,5,4,2
77.75908601284027,false,0.4892578,-0.041015625,0.93066406,0.9632798,-0.04699819,-0.041015625,0.93066406,0,-3,-2,1,-5,-7,-1,0
77.78771793842316,false,0.5419922,-0.01171875,0.9379883,0.9609017,-0.049805995,-0.01171875,0.9379883,-2,-3,9,-5,9,-5,-3,-3
77.8178699016571,false,0.58447266,-0.0009765625,0.91503906,0.95782197,-0.056030113,-0.0009765625,0.91503906,-4,2,-2,-8,-2,-6,-5,-2
77.81983292102814,false,0.6357422,-0.07324219,0.9169922,0.95410645,-0.06402621,-0.07324219,0.9169922,3,-2,10,-4,-10,-1,0,3
77.84787797927856,false,0.60253906,-0.08251953,0.93896484,0.95014095,-0.07043506,-0.08251953,0.93896484,1,2,9,1,6,2,-1,-1
77.87793290615082,false,0.5786133,-0.02734375,0.84521484,0.94568855,-0.07653888,-0.02734375,0.84521484,0,0,4,-6,0,3,5,1
77.87989890575409,false,0.61376953,-0.014160156,0.81640625,0.9404306,-0.08459481,-0.014160156,0.81640625,-2,4,4,12,16,-1,-1,-2
77.90781891345978,false,0.7109375,-0.04736328,0.79345703,0.93390816,-0.09582614,-0.04736328,0.79345703,-1,2,6,7,-6,-4,-1,0
77.93778991699219,false,0.77734375,-0.11035156,0.7558594,0.926449,-0.10882526,-0.11035156,0.7558594,3,-5,-5,8,-10,9,2,2
77.93979799747467,false,0.7651367,-0.123535156,0.6894531,0.91833586,-0.12091076,-0.123535156,0.6894531,-1,-3,-2,-1,3,-4,-1,-2
77.96774792671204,false,0.7368164,-0.107910156,0.62597656,0.90984535,-0.13214028,-0.107910156,0.62597656,2,0,3,-7,9,2,4,2
77.99805891513824,false,0.75146484,-0.10546875,0.578125,0.9007532,-0.14495791,-0.10546875,0.578125,5,1,-2,1,-43,6,9,4
77.9998289346695,false,0.83203125,-0.13085938,0.5292969,0.8908561,-0.16003184,-0.13085938,0.5292969,1,-1,1,6,-9,-9,-5,-1
78.02769899368286,false,0.90185547,-0.21289062,0.50439453,0.880698,-0.17602973,-0.21289062,0.50439453,-2,8,1,-7,-12,6,-1,0
78.05800890922546,false,0.8647461,-0.24951172,0.52197266,0.87125725,-0.18938783,-0.24951172,0.52197266,-4,-2,1,8,45,-2,-5,-3
78.05985593795776,false,0.8120117,-0.1875,0.4975586,0.86231005,-0.19983034,-0.1875,0.4975586,-2,-7,-2,-6,-4,-2,-2,-1
78.08784890174866,false,0.8359375,-0.15673828,0.43945312,0.8530188,-0.21038608,-0.15673828,0.43945312,-2,-4,-4,6,63,-1,-8,-7
78.11790895462036,false,0.88183594,-0.15771484,0.40625,0.84366846,-0.22161326,-0.15771484,0.40625,-2,8,2,-2,-10,-1,0,0
78.11979901790619,false,0.89208984,-0.19140625,0.41064453,0.8348338,-0.23254253,-0.19140625,0.41064453,-5,-5,-13,-4,-1,-1,-3,-4
78.14785492420197,false,0.9008789,-0.18896484,0.40576172,0.8264633,-0.24254966,-0.18896484,0.40576172,0,4,7,-8,-7,-4,-4,0
78.17769300937653,false,0.9038086,-0.18652344,0.3515625,0.8180664,-0.25220102,-0.18652344,0.3515625,6,1,1,-5,-21,-5,0,4
78.17989790439606,false,0.9042969,-0.1899414,0.33789062,0.81025195,-0.26117274,-0.1899414,0.33789062,-1,-6,-10,0,0,-2,1,0
78.20967495441437,true,0.89990234,-0.22167969,0.30810547,0.8027386,-0.27032614,-0.22167969,0.30810547,-4,-1,-3,-10,-6,0,-10,-8
78.2379310131073,true,0.9145508,-0.22607422,0.29101562,0.7955729,-0.27886248,-0.22607422,0.29101562,-9,-2,-6,9,-15,-6,-3,-2
78.23993301391602,true,0.9086914,-0.24121094,0.25585938,0.78894776,-0.28705102,-0.24121094,0.25585938,-1,-2,1,1,0,5,2,1
78.26788294315338,true,0.9003906,-0.27539062,0.23876953,0.7829354,-0.29509607,-0.27539062,0.23876953,-3,-3,0,-1,20,5,2,-2
78.29779100418091,true,0.87109375,-0.30029297,0.19042969,0.7775851,-0.30261123,-0.30029297,0.19042969,3,0,-6,-5,-12,-2,2,1
78.30037295818329,true,0.87109375,-0.3251953,0.1171875,0.77317274,-0.3091348,-0.3251953,0.1171875,2,-2,-3,1,-4,2,4,2
78.32774090766907,true,0.875,-0.34277344,0.05126953,0.770093,-0.31427512,-0.34277344,0.05126953,3,0,-2,-13,-20,-4,-2,-1
78.3580459356308,true,0.87890625,-0.32910156,0.016113281,0.7683046,-0.31786862,-0.32910156,0.016113281,2,-1,4,11,19,-10,0,3
78.35973799228668,true,0.86376953,-0.3232422,-0.010253906,0.7669844,-0.32080775,-0.3232422,-0.010253906,-2,-2,-2,-6,-15,-1,-5,-4
78.38784801959991,true,0.8569336,-0.37304688,-0.034179688,0.766241,-0.32306147,-0.37304688,-0.034179688,-2,-3,0,0,9,-3,-2,0
78.41795897483826,true,0.8330078,-0.41552734,0.00390625,0.76703393,-0.3228171,-0.41552734,0.00390625,4,3,-2,-6,-12,-10,1,1
78.41983497142792,true,0.8959961,-0.42919922,-0.015625,0.77018756,-0.3170104,-0.42919922,-0.015625,-2,5,2,5,-19,2,-3,-2
78.47806394100189,true,0.84716797,-0.40625,-0.0024414062,0.77502996,-0.30755836,-0.40625,-0.0024414062,-5,-3,1,2,16,7,-3,-5
78.5085039138794,true,0.7631836,-0.42578125,0.064453125,0.7812418,-0.29589534,-0.42578125,0.064453125,4,-3,-3,-6,8,4,-4,0
78.51149296760559,true,0.6616211,-0.44726562,0.2705078,0.79776883,-0.2600027,-0.44726562,0.2705078,19,10,6,7,-20,-1,21,29
78.53783094882965,true,0.6738281,-0.33740234,0.43164062,0.8073644,-0.23278558,-0.33740234,0.43164062,-19,9,-4,1,7,-16,17,21
78.53986096382141,true,0.67333984,-0.25585938,0.6821289,0.8166646,-0.20093124,-0.25585938,0.6821289,-55,-9,-14,-14,-11,2,1,-50
78.56800091266632,true,0.46435547,-0.24560547,1.2749023,0.8248108,-0.16210578,-0.24560547,1.2749023,59,-15,-31,-22,-9,-24,-34,-78
78.59778892993927,true,0.17871094,-0.16015625,1.6347656,0.831654,-0.120725945,-0.16015625,1.6347656,-48,-19,8,11,18,10,11,5
78.59981000423431,true,0.32666016,-0.020996094,0.96484375,0.82791615,-0.08623999,-0.020996094,0.96484375,6,16,4,-15,33,-27,-15,13
78.62785995006561,true,0.37695312,0.41455078,0.123535156,0.8194582,-0.03009034,0.41455078,0.123535156,-17,5,14,25,3,113,-6,2
78.65768599510193,true,-0.83496094,1.3442383,0.96972656,0.8160313,0.03509484,1.3442383,0.96972656,11,-10,5,4,44,-54,-6,20
78.65976095199585,true,-0.75097656,2.4765625,0.99121094,0.82585853,0.06408628,2.4765625,0.99121094,19,-5,4,-1,-9,26,55,16
78.68773293495178,true,0.8100586,0.9814453,0.8833008,0.836756,0.025513459,0.9814453,0.8833008,-11,-59,9,9,-90,-17,-52,-19
78.71780097484589,true,0.77978516,0.04296875,1.2363281,0.8302851,-0.021362917,0.04296875,1.2363281,20,97,-10,-6,46,-46,-4,-6
78.71975696086884,true,0.49658203,-0.33642578,1.2280273,0.8241528,-0.044799536,-0.33642578,1.2280273,2,42,-3,-2,6,22,1,2
78.74777293205261,true,0.40966797,-0.37451172,1.1079102,0.82964844,-0.041869994,-0.37451172,1.1079102,10,2,3,7,-11,3,7,11
78.7779449224472,true,0.4194336,0.2836914,0.8857422,0.83360994,-0.01635726,0.2836914,0.8857422,4,-40,9,-1,-7,2,16,8
78.77974700927734,true,0.44335938,0.6064453,0.8798828,0.83552855,-0.00061036495,0.6064453,0.8798828,1,-16,-6,2,5,-11,1,6
78.80798399448395,true,0.31054688,0.36914062,0.9482422,0.8361443,-0.006530947,0.36914062,0.9482422,-2,-5,-4,-1,-16,1,-10,-2
78.83782196044922,true,0.28466797,0.11376953,1.0029297,0.836973,-0.019653272,0.11376953,1.0029297,-3,-5,-5,-2,-7,1,-3,-1
78.839674949646,true,0.34716797,0.02734375,0.97265625,0.8383772,-0.02801508,0.02734375,0.97265625,2,1,-2,-10,-9,3,3,0
78.86789691448212,true,0.36376953,0.18164062,0.9667969,0.83937436,-0.027405402,0.18164062,0.9667969,-2,-6,-2,0,13,-4,-4,2
78.89774000644684,true,0.32763672,0.29736328,0.92578125,0.84001577,-0.025512358,0.29736328,0.92578125,5,-3,-4,-8,-2,-7,-2,-1
78.89976799488068,true,0.29296875,0.26416016,0.95654297,0.84037554,-0.026061468,0.26416016,0.95654297,-4,-2,-4,-6,3,1,-2,-1
78.92788398265839,true,0.28125,0.2680664,0.99121094,0.8405141,-0.027221648,0.2680664,0.99121094,-2,1,1,-7,-9,-6,-2,0
78.95777797698975,false,0.26123047,0.2607422,0.9892578,0.84075165,-0.02917454,0.2607422,0.9892578,-2,-1,-5,5,-8,-4,-2,-1
78.95985293388367,false,0.27294922,0.29492188,1.0043945,0.8409412,-0.031005815,0.29492188,1.0043945,-4,-5,-23,-8,8,4,-3,-5
78.9878089427948,false,0.28955078,0.30273438,1.003418,0.8411752,-0.034423366,0.30273438,1.003418,0,1,8,0,1,2,1,3
79.01792895793915,false,0.33398438,0.2685547,0.99658203,0.8413621,-0.040038705,0.2685547,0.99658203,-3,-3,-1,7,-1,-4,-4,-2
79.01979994773865,false,0.42089844,0.22949219,0.96972656,0.84105664,-0.04815629,0.22949219,0.96972656,1,2,5,-3,14,0,1,1
79.0477739572525,false,0.49414062,0.20654297,0.92089844,0.84033936,-0.058105975,0.20654297,0.92089844,-1,-3,-4,2,1,-1,-1,1
79.07776701450348,false,0.52197266,0.16748047,0.90185547,0.83952254,-0.06890738,0.16748047,0.90185547,-3,1,-7,-2,-5,2,2,-1
79.10790300369263,false,0.5385742,0.1586914,0.8964844,0.8385568,-0.07958935,0.1586914,0.8964844,-2,1,18,2,26,-1,-5,-2
79.10981690883636,false,0.56640625,0.15429688,0.81591797,0.8370801,-0.09173397,0.15429688,0.81591797,0,1,5,4,-6,-3,-1,-2
79.13777101039886,false,0.6333008,0.099609375,0.7861328,0.8352045,-0.10552971,0.099609375,0.7861328,1,2,-1,3,-4,0,0,0
79.13974797725677,false,0.66503906,0.06982422,0.73779297,0.8325686,-0.12011545,0.06982422,0.73779297,-1,-3,-3,17,-1,-1,-2,-1
79.1679059267044,false,0.71191406,0.05908203,0.68408203,0.82892793,-0.13574374,0.05908203,0.68408203,2,1,3,-7,-11,-2,1,3
79.1979409456253,false,0.69921875,0.034179688,0.6689453,0.8249947,-0.15148604,0.034179688,0.6689453,-2,-6,-4,-19,-6,-2,-2,-3
79.1997219324112,false,0.6948242,0.029785156,0.6113281,0.8206068,-0.16766135,0.029785156,0.6113281,3,2,-2,-9,-4,-1,3,3
79.22790491580963,false,0.71240234,-0.014160156,0.55371094,0.8160297,-0.18383557,-0.014160156,0.55371094,-4,0,-6,-4,-22,1,-1,-2
79.25783801078796,false,0.7602539,-0.05810547,0.55322266,0.81151706,-0.19897304,-0.05810547,0.55322266,-4,3,-2,-5,12,1,-3,-2
79.25976192951202,false,0.78466797,-0.057128906,0.5209961,0.8068511,-0.21263762,-0.057128906,0.5209961,0,-6,3,3,-3,-7,-1,0
79.28777396678925,false,0.8105469,-0.07519531,0.47265625,0.8022315,-0.22521561,-0.07519531,0.47265625,1,1,-1,10,-3,-1,-2,0
79.31786894798279,false,0.80322266,-0.06982422,0.4663086,0.7978383,-0.23595798,-0.06982422,0.4663086,-1,0,1,2,-2,-1,-2,-2
79.31982290744781,false,0.8183594,-0.060058594,0.43603516,0.79323614,-0.24677238,-0.060058594,0.43603516,-2,-6,-1,7,11,-2,-1,0
79.34777200222015,false,0.8466797,-0.095703125,0.40283203,0.7886265,-0.25768757,-0.095703125,0.40283203,0,8,-1,-8,-4,1,1,-1
79.37786090373993,false,0.8574219,-0.13867188,0.38916016,0.78459364,-0.26732945,-0.13867188,0.38916016,-2,-6,-6,0,7,-2,-3,-3
79.3798279762268,false,0.86572266,-0.13964844,0.3959961,0.78134704,-0.2748325,-0.13964844,0.3959961,-1,-5,9,5,-1,-1,1,1
79.4077719449997,false,0.8745117,-0.115722656,0.40185547,0.7784999,-0.28112665,-0.115722656,0.40185547,-3,-9,-8,-4,-15,-4,-3,-3
79.43781101703644,false,0.89453125,-0.123535156,0.39794922,0.7758209,-0.2871105,-0.123535156,0.39794922,-1,1,-4,-5,-1,1,0,0
79.43991601467133,false,0.890625,-0.15283203,0.39501953,0.77329254,-0.2930211,-0.15283203,0.39501953,-2,1,2,-13,13,-3,-4,-1
79.46770691871643,false,0.9057617,-0.16699219,0.37353516,0.7709123,-0.29839206,-0.16699219,0.37353516,1,8,-8,8,12,3,1,0
79.49792492389679,false,0.921875,-0.16601562,0.36914062,0.769133,-0.30247763,-0.16601562,0.36914062,-2,-3,6,3,2,-5,0,-2
79.5007449388504,false,0.9082031,-0.1640625,0.35986328,0.7674458,-0.30681965,-0.1640625,0.35986328,3,-3,3,10,18,-1,-3,-2
79.52858293056488,true,0.9116211,-0.21435547,0.32763672,0.7651324,-0.31249824,-0.21435547,0.32763672,-1,9,0,-14,-22,0,2,2
79.55775594711304,true,0.9238281,-0.2602539,0.31347656,0.76279855,-0.3181074,-0.2602539,0.31347656,-9,-10,-12,-9,45,5,-4,-9
79.5604749917984,true,0.9091797,-0.27539062,0.2631836,0.7608005,-0.3228748,-0.27539062,0.2631836,4,0,5,14,-3,-1,1,3
79.58878493309021,true,0.9086914,-0.29882812,0.2163086,0.75903195,-0.3271479,-0.29882812,0.2163086,1,1,-11,-5,-20,3,5,0
79.61770391464233,true,0.9663086,-0.29638672,0.27490234,0.75794864,-0.32990116,-0.29638672,0.27490234,3,-1,7,-1,-21,0,2,2
79.62039291858673,true,0.8808594,-0.27539062,0.27539062,0.75683045,-0.33221194,-0.27539062,0.27539062,1,6,1,-2,13,-4,-3,0
79.64836299419403,true,0.8911133,-0.2915039,0.25927734,0.75494176,-0.33538726,-0.2915039,0.25927734,1,1,4,4,-5,4,3,3
79.67791390419006,true,0.88623047,-0.2998047,0.22753906,0.75308657,-0.338123,-0.2998047,0.22753906,-3,-2,-3,-8,-18,-4,-2,-3
79.68035995960236,true,0.8955078,-0.31396484,0.15917969,0.7512109,-0.33990037,-0.31396484,0.15917969,-2,-4,-1,3,33,1,-3,-4
79.70839595794678,true,0.89990234,-0.32910156,0.115234375,0.749553,-0.340201,-0.32910156,0.115234375,-2,-1,-4,-5,-14,-2,1,1
79.73775494098663,true,0.89746094,-0.34179688,0.083984375,0.74773574,-0.3392307,-0.34179688,0.083984375,-3,-2,0,1,7,-2,-2,-1
79.74047493934631,true,0.89208984,-0.34570312,0.06542969,0.7455224,-0.336721,-0.34570312,0.06542969,2,3,3,9,-5,2,-1,1
79.76835191249847,true,0.8701172,-0.3413086,0.053710938,0.7440543,-0.33000588,-0.3413086,0.053710938,0,-4,-5,-7,-6,1,0,-1
79.79783999919891,true,0.8330078,-0.3779297,0.020507812,0.74291,-0.3207965,-0.3779297,0.020507812,-1,-6,-6,-6,-26,-1,2,7
79.8004469871521,true,0.80126953,-0.43310547,0.07324219,0.74310195,-0.3073726,-0.43310547,0.07324219,-14,13,4,5,10,-7,1,3
79.82880294322968,true,0.7109375,-0.41845703,0.21289062,0.74565387,-0.28704348,-0.41845703,0.21289062,41,10,14,18,8,7,14,13
79.85778999328613,true,0.61865234,-0.32470703,0.41503906,0.75047237,-0.25908875,-0.32470703,0.41503906,-79,-44,-13,-15,-3,53,-31,-56
79.86050498485565,true,0.60791016,-0.35253906,0.6694336,0.75535464,-0.22606929,-0.35253906,0.6694336,-78,20,12,12,54,-8,10,-84
79.91745591163635,true,0.56933594,-0.33007812,1.0107422,0.75798076,-0.18468878,-0.33007812,1.0107422,-47,-3,-1,-15,-1,18,-20,-20
79.91965699195862,true,0.4194336,-0.2290039,1.1767578,0.758143,-0.13622406,-0.2290039,1.1767578,21,-37,-10,25,-37,-11,1,19
79.92182791233063,true,0.28271484,0.4086914,0.60009766,0.75248986,-0.08563089,0.4086914,0.60009766,8,28,-13,-42,-17,-19,-24,5
79.94832992553711,true,-0.11816406,0.8540039,0.55810547,0.7416979,-0.02697749,0.8540039,0.55810547,41,-13,21,18,-3,56,32,72
79.97777199745178,true,-1.2661133,2.0424805,1.3251953,0.7394249,0.008544737,2.0424805,1.3251953,0,3,-11,-7,-7,-39,-24,7
79.98026990890503,true,-0.8652344,1.2133789,1.4316406,0.74264574,-0.012633767,1.2133789,1.4316406,-30,-33,-6,5,-34,-95,51,20
80.00863301753998,true,0.0859375,0.3486328,1.4082031,0.7362155,-0.04156547,0.3486328,1.4082031,127,36,-12,-4,3,28,-18,-4
80.03777396678925,true,0.6333008,-0.09082031,1.2602539,0.7279396,-0.049436662,-0.09082031,1.2602539,-38,-38,1,0,-4,-40,-7,-6
80.04069793224335,true,0.54785156,0.13964844,1.0751953,0.7332685,-0.03509484,0.13964844,1.0751953,4,62,0,-5,-10,-23,-10,3
80.06851899623871,true,0.41601562,0.48486328,0.93359375,0.73477745,-0.018676128,0.48486328,0.93359375,4,0,2,9,-10,22,8,6
80.1280130147934,true,0.3408203,0.5654297,0.93066406,0.7340778,-0.01269545,0.5654297,0.93066406,2,-8,3,-8,20,17,-2,6
80.13011491298676,true,0.3046875,0.25439453,1.0073242,0.73520356,-0.018248867,0.25439453,1.0073242,10,-3,2,4,-8,5,1,2
80.15804994106293,true,0.19873047,0.2421875,0.99902344,0.73930645,-0.023070902,0.2421875,0.99902344,-1,1,-1,-1,7,-2,2,0
80.16058492660522,true,0.1928711,0.28710938,0.9848633,0.7412064,-0.0238646,0.28710938,0.9848633,4,6,-6,-6,1,2,0,2
80.18853497505188,true,0.18652344,0.27441406,0.9873047,0.74259084,-0.026305305,0.27441406,0.9873047,5,4,-1,-1,-10,1,-1,1
80.21794891357422,false,0.2006836,0.26220703,0.97216797,0.74375665,-0.029296177,0.26220703,0.97216797,0,-1,-1,3,4,-1,-6,-1
80.22118496894836,false,0.22460938,0.28710938,0.9628906,0.74503344,-0.031371113,0.28710938,0.9628906,1,-4,-1,-4,-3,-3,5,1
80.24850296974182,false,0.24609375,0.2998047,0.9458008,0.746456,-0.03369123,0.2998047,0.9458008,-2,-4,-1,0,0,7,1,-1
80.27758300304413,false,0.265625,0.27685547,0.9345703,0.7477068,-0.037293784,0.27685547,0.9345703,-2,2,3,-4,2,3,-3,-1
80.27911794185638,false,0.29248047,0.23925781,0.9448242,0.74894106,-0.04144169,0.23925781,0.9448242,-1,-1,-1,4,-3,0,-2,-1
80.30778801441193,false,0.30078125,0.24658203,0.9453125,0.75019616,-0.044861622,0.24658203,0.9453125,-2,0,2,-4,-7,-9,0,1
80.33768892288208,false,0.31640625,0.2578125,0.92822266,0.75170153,-0.048461434,0.2578125,0.92822266,-1,0,2,7,10,-1,2,0
80.33910596370697,false,0.34033203,0.26123047,0.9248047,0.7533048,-0.052918106,0.26123047,0.9248047,-2,1,-11,-7,-29,-1,-4,-4
80.36784899234772,false,0.35302734,0.25732422,0.9238281,0.75481415,-0.058532123,0.25732422,0.9238281,0,-3,-3,-12,7,1,-1,0
80.397469997406,false,0.38623047,0.24658203,0.9248047,0.75635237,-0.06518595,0.24658203,0.9248047,-2,-3,0,0,-1,-1,-3,-3
80.39918100833893,false,0.41357422,0.22558594,0.93847656,0.7580244,-0.072445646,0.22558594,0.93847656,-3,-1,-20,-9,-6,-3,0,-2
80.42791700363159,false,0.4428711,0.20458984,0.9394531,0.7597576,-0.080199346,0.20458984,0.9394531,1,0,5,7,-5,-4,-1,0
80.45735192298889,false,0.4819336,0.21142578,0.91796875,0.7610938,-0.087705836,0.21142578,0.91796875,2,1,-1,-6,4,0,-1,1
80.45927691459656,false,0.5283203,0.2211914,0.87841797,0.76207477,-0.096068054,0.2211914,0.87841797,-1,-3,-1,11,-2,-1,-1,-1
80.48776698112488,false,0.5595703,0.22021484,0.8725586,0.7626407,-0.105347574,0.22021484,0.8725586,1,-4,-2,0,2,-1,-3,1
80.51750898361206,false,0.5644531,0.19335938,0.89453125,0.763171,-0.115354545,0.19335938,0.89453125,0,-2,-4,-6,1,3,0,-2
80.51917099952698,false,0.56152344,0.16601562,0.8413086,0.7634535,-0.12706932,0.16601562,0.8413086,-3,0,5,-6,0,1,1,-1
80.54783499240875,false,0.5854492,0.119628906,0.7993164,0.7634119,-0.13964555,0.119628906,0.7993164,-3,-1,3,8,16,-2,-2,0
80.57759892940521,false,0.62109375,0.091308594,0.77490234,0.7630634,-0.1519779,0.091308594,0.77490234,0,4,13,2,6,-1,2,2
80.57926499843597,false,0.64501953,0.1171875,0.7241211,0.7621368,-0.16430466,0.1171875,0.7241211,0,-1,0,-2,12,2,-2,-1
80.60789096355438,false,0.65234375,0.125,0.7348633,0.760853,-0.17687728,0.125,0.7348633,-1,4,8,1,-2,1,0,-3
80.63740491867065,false,0.6479492,0.11767578,0.71240234,0.75866646,-0.19158922,0.11767578,0.71240234,1,-2,5,-4,-2,-4,0,0
80.63908791542053,false,0.6772461,0.024414062,0.6621094,0.7559077,-0.20824845,0.024414062,0.6621094,-2,1,-13,7,-2,2,0,-2
80.66779696941376,false,0.7338867,-0.037109375,0.63134766,0.75303525,-0.22313964,-0.037109375,0.63134766,1,1,-2,-1,-17,-4,0,0
80.69742691516876,false,0.75439453,-0.030273438,0.58691406,0.75036395,-0.23516776,-0.030273438,0.58691406,0,-1,-2,-1,-5,-2,-2,-2
80.69925391674042,false,0.75146484,-0.0073242188,0.5722656,0.74776274,-0.24579549,-0.0073242188,0.5722656,-1,-2,-5,-8,-6,-3,-2,-1
80.72769796848297,false,0.75097656,-0.0014648438,0.55322266,0.7447587,-0.2561672,-0.0014648438,0.55322266,-1,-2,-4,-7,8,-1,-1,-2
80.75777900218964,false,0.7739258,-0.043945312,0.5185547,0.7414476,-0.26763648,-0.043945312,0.5185547,0,1,3,4,-6,-2,0,-2
80.75934493541718,false,0.7895508,-0.10058594,0.5107422,0.738346,-0.27826068,-0.10058594,0.5107422,0,-1,1,1,-7,0,-2,0
80.78781795501709,false,0.8051758,-0.09716797,0.52490234,0.7357726,-0.2863135,-0.09716797,0.52490234,-2,-4,-4,-10,-14,-1,-1,-1
80.81737899780273,false,0.80859375,-0.05078125,0.53271484,0.73344314,-0.2929012,-0.05078125,0.53271484,-1,-3,-9,0,10,1,1,1
80.81927990913391,false,0.81689453,-0.014160156,0.5522461,0.73058474,-0.3001684,-0.014160156,0.5522461,-5,2,0,-9,-2,-4,-3,-3
80.84773099422455,false,0.8251953,-0.036132812,0.5883789,0.7275932,-0.30828562,-0.036132812,0.5883789,-4,5,-14,-1,-6,-4,-1,0
80.87773501873016,false,0.8383789,-0.064941406,0.56689453,0.72441703,-0.31737876,-0.064941406,0.56689453,1,-7,2,18,11,2,0,-3
80.87915802001953,false,0.8520508,-0.0625,0.5859375,0.72190017,-0.3251236,-0.0625,0.5859375,0,0,-1,15,33,-1,-1,-1
80.90781795978546,false,0.8598633,-0.016601562,0.58154297,0.71972555,-0.3325801,-0.016601562,0.58154297,-2,1,-12,-2,16,-4,-5,-2
80.93806600570679,false,0.8540039,-0.032226562,0.5185547,0.71725976,-0.3418458,-0.032226562,0.5185547,5,-1,13,2,12,4,2,1
80.93922901153564,false,0.8676758,-0.13232422,0.4482422,0.71476984,-0.35295996,-0.13232422,0.4482422,-1,6,-2,-7,-10,0,-1,2
80.96779596805573,false,0.88427734,-0.18798828,0.37646484,0.7130566,-0.3628453,-0.18798828,0.37646484,-6,-3,-5,-2,3,2,-2,-6
80.99773693084717,false,0.8955078,-0.21875,0.28564453,0.7117738,-0.37206084,-0.21875,0.28564453,4,-4,7,-2,-1,-3,-3,-1
80.99921095371246,true,0.8959961,-0.25683594,0.2607422,0.7105544,-0.38085034,-0.25683594,0.2607422,-9,-4,-9,-14,-26,-3,-6,-5
81.02801990509033,true,0.8935547,-0.28222656,0.23095703,0.70830745,-0.38995054,-0.28222656,0.23095703,1,1,13,2,-13,0,-2,-2
81.05745899677277,true,0.86279297,-0.3251953,0.19042969,0.705623,-0.39910635,-0.3251953,0.19042969,10,-4,-9,-4,6,2,-1,1
81.05909991264343,true,0.8588867,-0.3486328,0.17480469,0.7030504,-0.40697455,-0.3486328,0.17480469,0,7,16,6,-11,-3,12,6
81.0878609418869,true,0.82373047,-0.3461914,0.12207031,0.70104796,-0.4131459,-0.3461914,0.12207031,2,3,-4,0,-5,-3,-2,-1
81.11748099327087,true,0.86621094,-0.36914062,0.095214844,0.6996008,-0.4176976,-0.36914062,0.095214844,5,5,0,5,-24,-7,0,0
81.11919498443604,true,0.85791016,-0.3564453,0.080566406,0.6982216,-0.42076397,-0.3564453,0.080566406,-7,-7,-8,-19,-1,5,-5,-3
81.14780592918396,true,0.84814453,-0.3569336,0.07324219,0.6960456,-0.4232182,-0.3569336,0.07324219,1,2,3,5,-39,-1,3,-1
81.17839300632477,true,0.8544922,-0.40820312,0.07763672,0.69248855,-0.4257712,-0.40820312,0.07763672,-6,-1,-5,1,9,-2,-4,-2
81.17957592010498,true,0.8725586,-0.45214844,0.07470703,0.6873257,-0.4274347,-0.45214844,0.07470703,4,2,3,8,6,-7,3,4
81.20777499675751,true,0.90966797,-0.46533203,0.0859375,0.6795596,-0.428219,-0.46533203,0.0859375,-5,-5,-1,-5,11,3,-5,-8
81.23735892772675,true,0.9550781,-0.4736328,0.100097656,0.6699716,-0.4246144,-0.4736328,0.100097656,-2,-14,-2,-3,18,-3,1,-1
81.23917496204376,true,0.9770508,-0.48291016,0.12646484,0.65904707,-0.41887757,-0.48291016,0.12646484,1,-2,-5,-2,7,1,-1,6
81.26771593093872,true,0.96435547,-0.45703125,0.17578125,0.6477402,-0.40910226,-0.45703125,0.17578125,18,13,6,7,24,-6,11,4
81.29795694351196,true,0.9560547,-0.43701172,0.31884766,0.63895863,-0.3943978,-0.43701172,0.31884766,6,-3,-8,-12,9,-45,-67,-27
81.29943692684174,true,0.9477539,-0.45654297,0.5214844,0.63310033,-0.37383008,-0.45654297,0.5214844,19,-13,3,4,-7,29,17,0
81.3278739452362,true,0.8935547,-0.6303711,0.82910156,0.62958115,-0.34515575,-0.6303711,0.82910156,-29,-53,10,7,-34,5,56,-29
81.35764694213867,true,0.81152344,-0.54785156,0.90771484,0.6268618,-0.30699202,-0.54785156,0.90771484,26,82,-4,10,-21,9,5,2
81.35912096500397,true,0.7338867,-0.12451172,0.86816406,0.62515754,-0.26060945,-0.12451172,0.86816406,-29,-15,-8,-8,-13,0,-4,48
81.38779699802399,true,0.69873047,0.4248047,0.32128906,0.61523414,-0.21313469,0.4248047,0.32128906,4,15,-4,10,9,-41,6,17
81.41736996173859,true,0.16210938,1.105957,0.2602539,0.60295594,-0.17315377,1.105957,0.2602539,-14,1,-3,-12,1,9,-13,-7
81.41921401023865,true,-0.6015625,1.7475586,0.99316406,0.5966619,-0.16472898,1.7475586,0.99316406,-1,-40,-4,-8,-28,-28,-23,-8
81.44795596599579,true,-0.104003906,0.9223633,1.0742188,0.5878636,-0.18620971,0.9223633,1.0742188,-13,-23,3,3,32,39,26,9
81.47737801074982,true,0.5708008,0.06738281,1.1171875,0.5724354,-0.20849122,0.06738281,1.1171875,-8,64,3,-1,-10,-20,-5,-5
81.47916293144226,true,0.60302734,-0.13623047,1.0493164,0.56523156,-0.20580508,-0.13623047,1.0493164,-11,-114,4,1,0,42,-22,-9
81.50802099704742,true,0.40576172,0.27392578,0.78125,0.57365054,-0.19121686,0.27392578,0.78125,12,57,-4,-2,20,30,2,1
81.53738498687744,true,0.5234375,0.63964844,0.63671875,0.5791674,-0.17944485,0.63964844,0.63671875,-6,-18,1,-1,4,-32,-7,-9
81.53940296173096,true,0.6088867,0.61865234,0.63671875,0.57836264,-0.17754927,0.61865234,0.63671875,8,10,-2,3,0,1,-3,3
81.5677319765091,true,0.59765625,0.21386719,0.7446289,0.57790715,-0.18309447,0.21386719,0.7446289,0,15,-3,-4,21,-6,-2,-2
81.59758591651917,true,0.5571289,0.15478516,0.76660156,0.57982844,-0.18426338,0.15478516,0.76660156,1,7,1,-15,-14,-4,6,4
81.59980499744415,true,0.55908203,0.2705078,0.7402344,0.5835954,-0.18145044,0.2705078,0.7402344,11,4,0,8,-16,6,5,6
81.62840700149536,true,0.5629883,0.32714844,0.7348633,0.5864662,-0.17864361,0.32714844,0.7348633,-2,5,3,3,-10,6,-4,-2
81.6575049161911,true,0.5546875,0.3071289,0.77001953,0.5884861,-0.17766885,0.3071289,0.77001953,-2,-1,2,-3,0,-4,-8,0
81.66001498699188,true,0.5292969,0.26416016,0.77490234,0.59061325,-0.1776051,0.26416016,0.77490234,-8,-2,-1,0,-7,-19,-5,-10
81.68842792510986,true,0.54785156,0.2548828,0.7763672,0.59319,-0.17699876,0.2548828,0.7763672,8,6,2,-1,5,-2,3,2
81.71739900112152,true,0.56152344,0.27441406,0.7661133,0.5960136,-0.17584386,0.27441406,0.7661133,5,0,-1,-4,-6,-1,12,5
81.719801902771,true,0.5722656,0.31103516,0.7739258,0.59897995,-0.1741888,0.31103516,0.7739258,-5,-5,-5,9,3,-5,0,-4
81.7484849691391,true,0.5463867,0.31201172,0.78515625,0.6023353,-0.17247944,0.31201172,0.78515625,-3,2,-1,-4,-2,-1,-2,-3
81.7776049375534,true,0.5209961,0.31347656,0.8183594,0.606253,-0.17077377,0.31347656,0.8183594,-2,-2,-1,0,-2,5,-4,-3
81.77971601486206,true,0.5307617,0.2939453,0.81396484,0.61093783,-0.1697931,0.2939453,0.81396484,-2,0,0,-3,1,4,9,2
81.80842196941376,false,0.54248047,0.30517578,0.8300781,0.6158557,-0.16864313,0.30517578,0.8300781,-2,-1,0,-1,-2,-4,-6,-3
81.83741295337677,false,0.5361328,0.32861328,0.84521484,0.6210834,-0.16766077,0.32861328,0.84521484,4,-2,0,6,-1,-4,-2,2
81.83984792232513,false,0.52246094,0.31201172,0.8671875,0.6265923,-0.16766502,0.31201172,0.8671875,0,0,2,-2,-1,3,2,0
81.86843192577362,false,0.53808594,0.31445312,0.83496094,0.6322503,-0.16802636,0.31445312,0.83496094,-4,0,0,14,2,-2,-1,-4
81.89749598503113,false,0.57714844,0.3334961,0.7709961,0.6382384,-0.16839436,0.3334961,0.7709961,-1,0,-4,-3,2,0,-2,-1
81.89992296695709,false,0.59765625,0.3178711,0.76708984,0.64488846,-0.16869882,0.3178711,0.76708984,-5,-2,-3,-14,-2,-4,-4,-1
81.92849898338318,false,0.5810547,0.3178711,0.7602539,0.65231055,-0.16857052,0.3178711,0.7602539,0,-1,-3,-2,-6,-2,-1,0
81.95747900009155,false,0.5830078,0.29052734,0.72753906,0.6605673,-0.1691853,0.29052734,0.72753906,4,1,0,-3,0,2,-4,1
81.96008896827698,false,0.6230469,0.24414062,0.7211914,0.66967624,-0.16961631,0.24414062,0.7211914,-2,-1,-1,-1,-1,6,1,-3
81.98837494850159,false,0.64453125,0.18066406,0.7109375,0.6799055,-0.16967121,0.18066406,0.7109375,-2,-2,-5,-14,2,0,-4,-2
82.01752591133118,false,0.68359375,0.15722656,0.6503906,0.69102424,-0.16942972,0.15722656,0.6503906,0,-2,-1,10,-3,1,2,-2
82.0198929309845,false,0.70410156,0.13671875,0.65527344,0.70268375,-0.16863678,0.13671875,0.65527344,-1,0,6,0,0,-8,-1,1
82.04849696159363,false,0.6772461,0.1274414,0.6928711,0.71452826,-0.16662358,0.1274414,0.6928711,-3,-6,-4,7,1,-2,2,-2
82.07765698432922,false,0.64990234,0.09472656,0.68652344,0.72621125,-0.16650733,0.09472656,0.68652344,2,2,-1,-7,2,0,0,1
82.07978200912476,false,0.62597656,0.03515625,0.6855469,0.7374147,-0.16729464,0.03515625,0.6855469,-6,0,-4,-3,-6,-5,-4,-4
82.10848701000214,false,0.6586914,0.014160156,0.67626953,0.7482057,-0.1661323,0.014160156,0.67626953,-2,-1,-8,-11,3,-1,-3,-2
82.13736093044281,false,0.6748047,0.05126953,0.6743164,0.759832,-0.16156119,0.05126953,0.6743164,2,-1,0,5,-1,5,2,0
82.13968193531036,false,0.63427734,0.08691406,0.70166016,0.77227414,-0.15508959,0.08691406,0.70166016,2,1,-1,-3,-2,-3,0,1
82.16849792003632,false,0.5961914,0.0390625,0.74365234,0.7845298,-0.14947203,0.0390625,0.74365234,0,-3,-1,-4,5,-6,0,1
82.19808995723724,false,0.6069336,0.0063476562,0.80126953,0.79589474,-0.14434747,0.0063476562,0.80126953,2,8,3,-5,-2,9,1,1
82.19989895820618,false,0.6723633,-0.051757812,0.8881836,0.8069048,-0.13952982,-0.051757812,0.8881836,-2,-4,-11,-4,41,4,-3,-2
82.2284539937973,false,0.703125,-0.076171875,0.9765625,0.817672,-0.13421369,-0.076171875,0.9765625,-1,1,18,10,7,-2,-1,1
82.25742101669312,false,0.6826172,-0.01171875,1.0737305,0.82738185,-0.12774493,-0.01171875,1.0737305,2,-5,-8,0,-4,-2,1,-1
82.26003396511078,false,0.69628906,0.040527344,1.0961914,0.8354944,-0.12365488,0.040527344,1.0961914,3,2,-2,-6,-17,-2,-1,2
82.28855895996094,false,0.7080078,0.052246094,1.105957,0.84209645,-0.12322916,0.052246094,1.105957,-1,11,1,-14,-44,-2,0,1
82.31749498844147,false,0.64404297,0.033691406,1.125,0.8479103,-0.12616114,0.033691406,1.125,-1,-14,-2,-5,5,0,-3,-2
82.3197649717331,false,0.6220703,0.00048828125,1.0805664,0.8524124,-0.13299489,0.00048828125,1.0805664,-2,4,7,6,-18,-4,1,2
82.34856593608856,false,0.6508789,-0.023925781,1.019043,0.8551495,-0.14257579,-0.023925781,1.019043,-8,7,3,8,3,-4,-3,-6
82.37724792957306,false,0.6791992,-0.057128906,0.88964844,0.85628474,-0.15423991,-0.057128906,0.88964844,6,-1,9,-4,1,0,-1,2
82.37967991828918,false,0.65185547,-0.072265625,0.7998047,0.85623956,-0.16582812,-0.072265625,0.7998047,-1,-8,0,10,44,-9,-2,-1
82.40852999687195,false,0.64501953,-0.056152344,0.70166016,0.8554792,-0.17755343,-0.056152344,0.70166016,-4,-7,-21,7,-7,5,0,-2
82.43737995624542,false,0.65185547,-0.075683594,0.6533203,0.85425365,-0.18890505,-0.075683594,0.6533203,-7,2,-2,3,0,1,1,-2
82.43990099430084,false,0.67529297,-0.110839844,0.6118164,0.8528009,-0.19965014,-0.110839844,0.6118164,7,3,3,-8,-16,-2,-3,-8
82.46867501735687,false,0.6665039,-0.14550781,0.5444336,0.8509409,-0.20910367,-0.14550781,0.5444336,3,-2,0,1,10,11,5,10
82.49729800224304,false,0.66308594,-0.16113281,0.49658203,0.84894586,-0.2176534,-0.16113281,0.49658203,-5,6,-3,-7,-32,1,3,3
82.4998300075531,false,0.6933594,-0.18457031,0.4658203,0.847026,-0.22503133,-0.18457031,0.4658203,0,-4,7,-2,1,9,6,0
82.5891489982605,false,0.7368164,-0.18798828,0.45410156,0.8452375,-0.230597,-0.18798828,0.45410156,3,0,-3,-2,4,-5,-4,-2
82.59126794338226,false,0.7504883,-0.1850586,0.44677734,0.84348613,-0.235224,-0.1850586,0.44677734,-3,-8,-6,-2,58,-1,-5,0
82.61748492717743,true,0.8129883,-0.24072266,0.42626953,0.83785284,-0.24555126,-0.24072266,0.42626953,-8,0,-5,0,26,-1,-1,-2
82.61992299556732,true,0.83984375,-0.22363281,0.39453125,0.83617663,-0.24694677,-0.22363281,0.39453125,-3,-3,-29,-8,-28,1,0,-2
82.64880990982056,true,0.859375,-0.2524414,0.32910156,0.83402324,-0.24901682,-0.2524414,0.32910156,2,0,17,8,-2,4,5,3
82.67770791053772,true,0.86035156,-0.28173828,0.2680664,0.8321417,-0.25060686,-0.28173828,0.2680664,1,-4,0,4,-8,-5,0,-3
82.67980396747589,true,0.8676758,-0.27783203,0.19482422,0.8305665,-0.25103763,-0.27783203,0.19482422,0,-1,-5,0,-10,7,-1,1
82.70855796337128,true,0.87109375,-0.30029297,0.1538086,0.8291243,-0.25153276,-0.30029297,0.1538086,-6,0,-4,-5,-4,-6,-5,-4
82.73732900619507,true,0.8745117,-0.3076172,0.103027344,0.8279345,-0.25170672,-0.3076172,0.103027344,3,0,14,12,7,1,2,-1
82.73992192745209,true,0.91503906,-0.31591797,0.013183594,0.827279,-0.25036877,-0.31591797,0.013183594,-2,3,-1,1,18,-2,-9,-4
82.76855099201202,true,0.9614258,-0.3696289,-0.03515625,0.8279269,-0.24785928,-0.3696289,-0.03515625,-5,0,-5,-7,22,-6,-9,-3
82.79738092422485,true,0.9223633,-0.39453125,-0.0029296875,0.8307617,-0.24310659,-0.39453125,-0.0029296875,0,-2,0,0,-10,3,5,0
82.79976201057434,true,0.8935547,-0.38378906,-0.0078125,0.8370833,-0.23455422,-0.38378906,-0.0078125,-4,-1,-2,-8,3,-2,-6,-4
82.82843601703644,true,0.8881836,-0.4111328,0.00390625,0.84448594,-0.22576998,-0.4111328,0.00390625,6,7,4,7,2,14,13,7
82.85748493671417,true,0.8227539,-0.42089844,0.11230469,0.85320365,-0.21606272,-0.42089844,0.11230469,-22,5,-9,-7,-11,-3,-14,1
82.85980594158173,true,0.70996094,-0.3564453,0.41796875,0.8637844,-0.20288435,-0.3564453,0.41796875,23,-12,8,0,11,2,-20,-67
82.88841390609741,true,0.5288086,-0.2919922,0.7104492,0.8753176,-0.18792991,-0.2919922,0.7104492,-18,-53,-39,-18,5,12,-42,-85
82.91731095314026,true,0.5566406,-0.72802734,0.96972656,0.8863495,-0.16827334,-0.72802734,0.96972656,-75,12,-2,-13,-14,6,-37,-54
82.91979897022247,true,0.5,-0.65771484,1.2539062,0.8988126,-0.124635026,-0.65771484,1.2539062,28,-73,20,0,34,-8,11,8
82.94850599765778,true,0.3022461,0.10107422,0.6567383,0.9056097,-0.07672383,0.10107422,0.6567383,43,79,-15,1,-47,-42,42,71
82.9775710105896,true,-0.024902344,0.6665039,0.47070312,0.9085116,-0.017822329,0.6665039,0.47070312,-18,3,11,-13,-29,-24,29,30
82.97988998889923,true,-1.2626953,1.6176758,1.3608398,0.91298354,0.017883686,1.6176758,1.3608398,12,-42,3,-12,-39,83,-5,39
83.0086419582367,true,-1.0317383,1.2651367,1.3793945,0.9188753,0.0034179352,1.2651367,1.3793945,9,26,-1,14,30,-4,61,13
83.03740990161896,true,0.19189453,0.2626953,1.3525391,0.91854984,-0.037843104,0.2626953,1.3525391,60,26,8,17,-34,-16,-28,8
83.04001295566559,true,0.7963867,-0.3310547,1.2128906,0.91296506,-0.062316976,-0.3310547,1.2128906,-23,-101,4,6,7,-10,-11,5
83.09907698631287,true,0.7832031,-0.3408203,1.0615234,0.9138299,-0.06286701,-0.3408203,1.0615234,-19,82,-6,5,16,14,-7,0
83.10119497776031,true,0.56884766,0.063964844,0.89697266,0.9148065,-0.045166586,0.063964844,0.89697266,2,-1,-3,-6,-8,-12,14,14
83.1290979385376,true,0.43554688,0.06201172,0.96240234,0.91351795,-0.042053442,0.06201172,0.96240234,4,7,1,24,7,-4,-3,3
83.1574490070343,true,0.4086914,-0.010253906,0.99609375,0.9130992,-0.04687568,-0.010253906,0.99609375,2,18,7,-4,-1,-2,-2,2
83.15975499153137,true,0.3330078,0.040527344,0.99853516,0.9134819,-0.048646603,0.040527344,0.99853516,5,2,3,-8,4,-2,-3,0
83.18838596343994,true,0.25585938,0.07910156,0.98291016,0.9139665,-0.05035544,0.07910156,0.98291016,5,-3,-10,-9,6,-3,3,3
83.21801292896271,false,0.19824219,0.09277344,1.0224609,0.9144369,-0.05255174,0.09277344,1.0224609,-3,4,-3,0,3,-3,2,-1
83.21988797187805,false,0.09472656,0.13085938,1.0302734,0.9151514,-0.054442782,0.13085938,1.0302734,1,0,-4,-1,13,-6,-4,0
83.24845600128174,false,0.012207031,0.17919922,1.003418,0.9162637,-0.056579832,0.17919922,1.003418,-5,1,3,-5,-20,0,0,-2
83.27774000167847,false,0.017578125,0.17578125,0.94677734,0.9175648,-0.059999082,0.17578125,0.94677734,0,0,2,-6,2,2,-2,0
83.27974498271942,false,0.079589844,0.15332031,0.9819336,0.91925377,-0.061767798,0.15332031,0.9819336,-4,-7,-4,1,10,-2,-4,-3
83.30852091312408,false,0.23388672,0.21923828,1.0087891,0.9211693,-0.05755782,0.21923828,1.0087891,-2,0,-2,-4,-3,0,-1,-1
83.33794295787811,false,0.35498047,0.1303711,1.1928711,0.9234347,-0.049867548,0.1303711,1.1928711,0,-2,10,-1,4,-1,-1,1
83.34046590328217,false,0.40185547,0.17041016,1.3242188,0.9249238,-0.037963744,0.17041016,1.3242188,1,6,-6,-5,-1,0,2,-1
83.36844897270203,false,0.5004883,0.16552734,1.4018555,0.92495364,-0.024903068,0.16552734,1.4018555,-1,-1,-1,31,14,1,-1,-1
83.39774596691132,false,0.64404297,0.29492188,1.4521484,0.92388994,-0.008728035,0.29492188,1.4521484,3,-1,-3,-8,-21,-9,1,2
83.40033197402954,false,0.6376953,0.33007812,1.5791016,0.92309403,0.0075073107,0.33007812,1.5791016,-5,-6,-2,3,-2,-1,-5,-5
83.42854297161102,false,0.6064453,0.30029297,1.6542969,0.922316,0.018738072,0.30029297,1.6542969,-2,-16,-29,-18,18,6,-3,-6
83.45811593532562,false,0.61376953,0.26220703,1.6069336,0.9210522,0.022888971,0.26220703,1.6069336,-5,3,6,14,12,-9,-6,-4
83.46081399917603,false,0.60595703,0.24951172,1.5244141,0.9197641,0.022156373,0.24951172,1.5244141,-5,2,3,-3,4,1,-1,-3
83.48849391937256,false,0.54541016,0.22460938,1.4614258,0.9189726,0.017883832,0.22460938,1.4614258,5,7,-2,-2,-25,-6,2,7
83.51884293556213,false,0.49169922,0.1796875,1.3291016,0.9185517,0.009521833,0.1796875,1.3291016,3,2,-4,8,1,-1,0,-2
83.54800999164581,false,0.44091797,0.16113281,1.1772461,0.91810036,0.00030517895,0.16113281,1.1772461,-1,0,8,-1,8,-1,-2,-4
83.55039894580841,false,0.3959961,0.14794922,1.0009766,0.91778135,-0.009155231,0.14794922,1.0009766,-7,-4,7,3,30,0,-5,-6
83.57847392559052,false,0.39111328,0.14941406,0.89404297,0.9175335,-0.018188318,0.14941406,0.89404297,-3,-9,-11,4,-19,-10,-3,-2
83.60850298404694,false,0.36767578,0.12402344,0.7451172,0.9177522,-0.037965007,0.12402344,0.7451172,-10,-5,-20,-1,16,1,-5,-5
83.63796091079712,false,0.35009766,0.0063476562,0.7216797,0.9182152,-0.050964482,0.0063476562,0.7216797,-4,1,-9,-6,-8,-3,-5,-2
83.6406079530716,false,0.3618164,0.012207031,0.70654297,0.9184354,-0.059450794,0.012207031,0.70654297,1,-3,11,20,-3,-7,-4,-1
83.66859197616577,false,0.38330078,0.080078125,0.6459961,0.91831976,-0.066832386,0.080078125,0.6459961,-3,-7,-4,16,13,-3,-1,-1
83.69785499572754,false,0.39160156,0.07910156,0.6152344,0.9179612,-0.07598814,0.07910156,0.6152344,5,3,3,-10,-13,5,5,2
83.70052695274353,false,0.41210938,0.0048828125,0.63134766,0.9176392,-0.08679546,0.0048828125,0.63134766,6,-10,3,-18,23,3,1,4
83.72849690914154,false,0.45166016,-0.06542969,0.6513672,0.9174396,-0.0964987,-0.06542969,0.6513672,-4,-2,3,4,23,1,2,-2
83.75788295269012,false,0.4584961,-0.08544922,0.66503906,0.9171997,-0.10370149,-0.08544922,0.66503906,-5,6,-26,-10,13,-2,-1,-3
83.76046097278595,false,0.4609375,-0.063964844,0.6035156,0.916545,-0.10992192,-0.063964844,0.6035156,7,-1,9,2,-6,-5,1,2
83.78843200206757,false,0.5,-0.08544922,0.5522461,0.91533834,-0.11779709,-0.08544922,0.5522461,-3,3,0,-2,2,3,-3,-3
83.81786000728607,false,0.50097656,-0.14160156,0.5415039,0.9140069,-0.12683181,-0.14160156,0.5415039,1,-12,2,9,9,-5,-5,-3
83.82063293457031,false,0.55371094,-0.15283203,0.5493164,0.91264653,-0.13555728,-0.15283203,0.5493164,0,-3,7,3,22,2,1,2
83.84844493865967,false,0.56347656,-0.17578125,0.56689453,0.91161525,-0.14294341,-0.17578125,0.56689453,-5,-8,-1,-13,-11,5,-6,-4
83.8780769109726,true,0.54589844,-0.20996094,0.5317383,0.9105999,-0.14996608,-0.20996094,0.5317383,16,50,35,1,8,10,12,8
83.88052797317505,true,0.56396484,-0.25390625,0.5253906,0.9097328,-0.15539616,-0.25390625,0.5253906,-3,-12,-13,4,-50,-4,4,1
83.90840601921082,true,0.6010742,-0.21826172,0.48779297,0.90906924,-0.15857136,-0.21826172,0.48779297,-6,-14,-3,1,17,7,0,-3
83.93789792060852,true,0.57666016,-0.2006836,0.47265625,0.90859306,-0.1614422,-0.2006836,0.47265625,-5,-5,-14,-10,8,2,-3,-4
83.94045901298523,true,0.5136719,-0.24072266,0.42089844,0.9082211,-0.16565269,-0.24072266,0.42089844,-6,7,17,8,-26,-13,-8,-8
83.96846795082092,true,0.58984375,-0.26367188,0.39794922,0.908244,-0.16814813,-0.26367188,0.39794922,-4,-5,-14,3,5,-2,-2,0
83.9977970123291,true,0.5878906,-0.26464844,0.36523438,0.9088381,-0.169133,-0.26464844,0.36523438,-4,-4,-1,-4,1,-3,1,-1
84.00042295455933,true,0.5776367,-0.2866211,0.30126953,0.9092972,-0.17010413,-0.2866211,0.30126953,7,-1,7,8,-10,-3,4,3
84.02865898609161,true,0.6074219,-0.31396484,0.22705078,0.9096053,-0.170654,-0.31396484,0.22705078,-1,2,-12,-9,12,4,-3,-2
84.05795001983643,true,0.66503906,-0.35888672,0.12841797,0.90978026,-0.17126282,-0.35888672,0.12841797,-3,5,2,-3,-9,-4,-9,-4
84.06044590473175,true,0.71972656,-0.3935547,0.13232422,0.910156,-0.17077632,-0.3935547,0.13232422,-11,-8,7,0,0,-2,-2,-7
84.08867692947388,true,0.7055664,-0.37646484,0.17578125,0.91292113,-0.1642489,-0.37646484,0.17578125,13,-7,2,3,13,2,4,8
84.11799800395966,true,0.65625,-0.40820312,0.29541016,0.91627485,-0.15582532,-0.40820312,0.29541016,29,3,-5,-4,6,-7,1,17
84.12040793895721,true,0.5683594,-0.4375,0.46435547,0.92085904,-0.14331391,-0.4375,0.46435547,2,-17,2,0,-6,2,1,12
84.1484169960022,true,0.51171875,-0.4951172,0.6328125,0.92622316,-0.12396437,-0.4951172,0.6328125,-5,31,-19,-4,-5,-54,-10,-1
84.17797994613647,true,0.4296875,-0.43847656,0.90527344,0.9304135,-0.09606867,-0.43847656,0.90527344,15,-7,-7,0,-24,-35,1,-21
84.18034994602203,true,0.19726562,-0.24658203,1.3496094,0.9311244,-0.062136,-0.24658203,1.3496094,-2,1,9,5,25,29,-15,32
84.20856392383575,true,-0.20117188,-0.18066406,1.5898438,0.9291142,-0.028260406,-0.18066406,1.5898438,-8,5,6,19,-14,-11,5,-21
84.23820900917053,true,-0.21240234,0.52685547,0.43652344,0.92454094,0.0070799277,0.52685547,0.43652344,-2,7,-7,12,21,-22,-8,-8
84.26830494403839,false,-0.88916016,0.7788086,1.0185547,0.916989,0.06439187,0.7788086,1.0185547,-29,-13,-4,-5,-5,107,0,-14
84.27009296417236,false,-2.2207031,1.4414062,1.4770508,0.917889,0.10376455,1.4414062,1.4770508,-15,-57,-6,-19,-14,-10,-6,1
84.29785799980164,false,-1.2299805,1.0361328,1.4370117,0.9216303,0.0795898,1.0361328,1.4370117,53,77,-7,-17,-27,-37,25,5
84.30038690567017,false,-0.29248047,0.27197266,1.4448242,0.91996014,0.026612435,0.27197266,1.4448242,36,-61,4,5,17,44,-9,4
84.32845497131348,false,-0.17138672,-0.47509766,1.3154297,0.9163325,-0.016418666,-0.47509766,1.3154297,-81,-82,-3,-6,10,-97,-1,-9
84.3579329252243,false,-0.15771484,-0.6899414,1.2192383,0.91617614,-0.020752825,-0.6899414,1.2192383,15,100,4,-1,0,44,7,-2
84.36043691635132,false,-0.3022461,-0.13476562,1.0024414,0.9165816,0.012817615,-0.13476562,1.0024414,-16,-15,5,-5,-14,10,-1,-6
84.38841795921326,false,-0.36328125,0.3461914,0.90966797,0.91652817,0.038636275,0.3461914,0.90966797,-9,-14,-2,-5,2,7,2,1
84.41800594329834,false,-0.31933594,0.39794922,0.92333984,0.91638553,0.044311702,0.39794922,0.92333984,11,11,4,-5,8,-3,1,-1
84.4205219745636,false,-0.30322266,0.15917969,0.9013672,0.9167512,0.03228771,0.15917969,0.9013672,1,6,-2,-11,-1,7,0,1
84.44850790500641,false,-0.31347656,0.009277344,0.94873047,0.91737413,0.019226404,0.009277344,0.94873047,-8,-1,3,24,1,-1,-3,-2
84.50804495811462,false,-0.2626953,-0.06201172,0.9814453,0.91822875,0.011169626,-0.06201172,0.9814453,-4,0,-2,-1,-11,-1,2,3
84.50988793373108,false,-0.1899414,-0.026367188,1.0180664,0.91889733,0.010620268,-0.026367188,1.0180664,-5,-5,3,19,1,-3,-3,-7
84.53867101669312,false,-0.22021484,0.14013672,0.9482422,0.91923493,0.016602384,0.14013672,0.9482422,-6,-1,-7,-7,-12,-7,-3,-3
84.54113793373108,false,-0.18847656,0.15136719,0.94970703,0.9191326,0.015075752,0.15136719,0.94970703,1,4,-2,-15,-1,1,1,-1
84.5685259103775,false,-0.115722656,0.045898438,0.9614258,0.91896796,0.010620379,0.045898438,0.9614258,1,-1,-1,-5,2,-5,-2,1
84.59787094593048,false,-0.0546875,-0.0073242188,0.98779297,0.91848606,0.0075075612,-0.0073242188,0.98779297,0,-2,-4,-1,0,-1,-1,0
84.6005939245224,false,-0.04345703,0.005859375,0.9501953,0.91762155,0.006164679,0.005859375,0.9501953,-2,0,-1,0,-2,1,0,-1
84.62846994400024,false,-0.020019531,0.023925781,0.93359375,0.9164648,0.0058595156,0.023925781,0.93359375,0,-2,0,3,3,-1,-2,-1
84.65789997577667,false,-0.0009765625,0.016113281,0.9399414,0.9153275,0.00549343,0.016113281,0.9399414,-6,1,16,-3,-6,0,-7,-4
84.66055798530579,false,0.037597656,0.025878906,0.9399414,0.9142034,0.005127059,0.025878906,0.9399414,3,1,2,-5,3,-6,3,1
84.68840193748474,false,0.08935547,0.014160156,0.9736328,0.9130369,0.0033569776,0.014160156,0.9736328,-3,-3,-6,5,2,-4,-1,-4
84.71799290180206,false,0.106933594,0.013183594,0.984375,0.9114093,0.0010986718,0.013183594,0.984375,-2,2,-4,-4,10,2,-1,-1
84.72061896324158,false,0.091308594,0.044921875,1.0019531,0.9097961,-0.00024414225,0.044921875,1.0019531,4,-5,-9,-5,2,1,4,3
84.74849891662598,false,0.088378906,0.029296875,1.0576172,0.9084441,-0.0014038037,0.029296875,1.0576172,3,-4,-4,-4,6,7,3,2
84.7782689332962,false,0.11230469,0.021484375,1.1264648,0.90729636,-0.0029907515,0.021484375,1.1264648,-2,1,16,4,9,-1,-3,-1
84.78044497966766,false,0.095703125,0.083984375,1.1733398,0.90620613,-0.0036011424,0.083984375,1.1733398,-5,-6,-11,-6,0,10,-9,-7
84.80849492549896,false,0.063964844,0.19042969,1.1513672,0.9058222,-0.003540037,0.19042969,1.1513672,8,5,-6,-19,1,-10,0,4
84.83787000179291,false,0.05078125,0.14257812,1.1547852,0.90638655,-0.006530866,0.14257812,1.1547852,0,1,-5,4,-21,-1,2,1
84.84043598175049,false,0.07470703,0.0,1.184082,0.907438,-0.014709932,0.0,1.184082,-1,4,0,-8,5,-2,2,0
84.86852300167084,false,0.12548828,-0.056640625,1.2084961,0.9085345,-0.024842026,-0.056640625,1.2084961,1,4,-4,5,-88,-3,-1,-3
84.89791297912598,false,0.18359375,-0.0043945312,1.1206055,0.909673,-0.034973335,-0.0043945312,1.1206055,-6,1,2,35,17,-8,-3,-2
84.9005879163742,false,0.17529297,0.0126953125,1.043457,0.91105926,-0.04687436,0.0126953125,1.043457,-2,-7,-2,-1,22,-1,1,-3
84.92857193946838,false,0.1796875,-0.08300781,1.0268555,0.9126563,-0.06207259,-0.08300781,1.0268555,0,0,0,5,6,-3,-2,0
84.95789194107056,false,0.24121094,-0.12890625,1.0009766,0.91394925,-0.07727125,-0.12890625,1.0009766,-1,-3,15,18,42,-3,-3,-2
84.96127796173096,false,0.24853516,-0.087402344,0.93896484,0.9153138,-0.09070127,-0.087402344,0.93896484,2,-1,-24,-3,50,0,-1,3
84.9885059595108,false,0.22998047,-0.07519531,0.9116211,0.91651404,-0.10498163,-0.07519531,0.9116211,4,3,3,-7,-27,-2,1,2
85.0178929567337,false,0.2446289,-0.095703125,0.84277344,0.91698736,-0.121764496,-0.095703125,0.84277344,-4,-2,6,1,10,0,1,-3
85.02061200141907,false,0.29882812,-0.19189453,0.79345703,0.91660327,-0.13946187,-0.19189453,0.79345703,-8,-4,9,-13,-4,-6,-6,-4
85.04849290847778,false,0.32666016,-0.20654297,0.7709961,0.9158497,-0.15533738,-0.20654297,0.7709961,-2,-3,-5,-19,-3,9,-1,-3
85.07803094387054,false,0.34570312,-0.22021484,0.73779297,0.9148154,-0.1696205,-0.22021484,0.73779297,3,9,-3,-1,-45,15,16,7
85.08045291900635,false,0.3623047,-0.23339844,0.74658203,0.9136333,-0.1824337,-0.23339844,0.74658203,5,-10,0,2,34,7,6,4
85.10848200321198,false,0.37548828,-0.18945312,0.75390625,0.91264,-0.192623,-0.18945312,0.75390625,-3,-10,-1,15,50,-10,-9,-4
85.13828694820404,false,0.39697266,-0.22558594,0.7519531,0.9114315,-0.20294045,-0.22558594,0.7519531,4,16,-2,-5,-41,1,2,2
85.14052700996399,false,0.41796875,-0.25341797,0.7817383,0.910308,-0.2119678,-0.25341797,0.7817383,-2,5,6,3,-24,-7,-3,-2
85.16852295398712,false,0.4321289,-0.25732422,0.7758789,0.90966374,-0.21844381,-0.25732422,0.7758789,-4,-6,-6,-2,11,5,-1,-2
85.198028922081,false,0.4243164,-0.25146484,0.7963867,0.9094363,-0.22320862,-0.25146484,0.7963867,-1,4,-1,-15,-50,-8,-4,-3
85.20058691501617,false,0.43310547,-0.2705078,0.8051758,0.90915376,-0.22789878,-0.2705078,0.8051758,0,5,-4,-4,3,2,-6,-2
85.25890493392944,true,0.45263672,-0.29589844,0.7871094,0.90861887,-0.23260204,-0.29589844,0.7871094,2,-4,-1,-2,2,4,4,0
85.26075196266174,true,0.47460938,-0.32910156,0.7441406,0.9084422,-0.23608266,-0.32910156,0.7441406,-7,-8,2,-2,6,-3,-1,0
85.28848993778229,true,0.4970703,-0.33447266,0.6777344,0.909404,-0.23852019,-0.33447266,0.6777344,2,-7,-1,3,-6,-2,2,4
85.31806993484497,true,0.49804688,-0.36376953,0.60253906,0.90999657,-0.23963019,-0.36376953,0.60253906,2,3,-5,3,-14,-9,-1,1
85.32035601139069,true,0.51464844,-0.4013672,0.5566406,0.9106612,-0.24036086,-0.4013672,0.5566406,0,2,-7,-7,-28,-2,6,2
85.34849190711975,true,0.5107422,-0.39404297,0.52734375,0.9113296,-0.24017695,-0.39404297,0.52734375,-2,-3,0,9,21,1,-6,-3
85.37789595127106,true,0.5239258,-0.35009766,0.48632812,0.91205573,-0.23889354,-0.35009766,0.48632812,1,2,-4,-11,-30,1,2,1
85.38083791732788,true,0.53222656,-0.35791016,0.47216797,0.9128539,-0.23718576,-0.35791016,0.47216797,0,1,1,-1,7,-3,4,2
85.40923297405243,true,0.57910156,-0.40429688,0.39208984,0.91352046,-0.2352924,-0.40429688,0.39208984,-3,2,-4,0,7,-10,-8,-3
85.43852698802948,true,0.6645508,-0.4248047,0.33544922,0.9145268,-0.23088995,-0.4248047,0.33544922,-5,-7,-6,-2,31,0,-7,-7
85.44128799438477,true,0.66064453,-0.40429688,0.32861328,0.91765755,-0.22015236,-0.40429688,0.32861328,-4,-4,-4,-12,-11,6,-4,-4
85.46936500072479,true,0.6958008,-0.42529297,0.3671875,0.9204313,-0.20947747,-0.42529297,0.3671875,10,3,-1,-2,-2,-1,2,3
85.49841892719269,true,0.67626953,-0.44921875,0.4272461,0.92262125,-0.19885552,-0.44921875,0.4272461,-7,0,-2,-2,-6,-2,-4,-10
85.50120401382446,true,0.59375,-0.44189453,0.55322266,0.9240597,-0.18768056,-0.44189453,0.55322266,-17,-4,-1,2,3,-1,-8,-14
85.52934992313385,true,0.48828125,-0.453125,0.86376953,0.9257942,-0.1716943,-0.453125,0.86376953,-35,-29,-5,2,4,-4,18,-40
85.55860197544098,true,0.2939453,-0.37158203,1.2851562,0.9284148,-0.1486831,-0.37158203,1.2851562,-26,10,35,13,7,26,-37,-25
85.5610169172287,true,0.026855469,-0.4404297,1.6508789,0.93001443,-0.12286664,-0.4404297,1.6508789,14,0,4,-9,63,25,51,42
85.61754596233368,true,-0.14257812,-0.7836914,1.5014648,0.9300063,-0.093690336,-0.7836914,1.5014648,9,10,-28,-28,-43,14,-1,9
85.61931097507477,true,0.022949219,-0.29541016,0.15478516,0.9263925,-0.033996616,-0.29541016,0.15478516,18,36,5,28,0,7,16,8
85.62194192409515,true,-1.0766602,1.1381836,0.8276367,0.9154201,0.04705887,1.1381836,0.8276367,1,-22,7,27,23,-44,-17,19
85.64910697937012,true,-2.0786133,2.6704102,1.152832,0.92060524,0.080506414,2.6704102,1.152832,8,47,-19,-12,48,-77,51,6
85.67856192588806,true,-0.60009766,0.39892578,1.2695312,0.9281522,0.015136565,0.39892578,1.2695312,-96,-72,-9,-15,-122,127,-59,-10
85.68145596981049,true,-0.28857422,-0.4272461,1.3505859,0.91951895,-0.054383762,-0.4272461,1.3505859,35,-59,5,4,-34,-128,0,9
85.70791792869568,true,-0.16308594,-1.1108398,1.3334961,0.914397,-0.0786158,-1.1108398,1.3334961,-51,-66,-2,5,25,-128,9,2
85.73800992965698,true,-0.12060547,-0.44726562,1.0185547,0.91988957,-0.05114906,-0.44726562,1.0185547,-16,52,8,3,-5,26,4,3
85.73990094661713,true,-0.2841797,0.17041016,0.91503906,0.9216151,-0.017150586,0.17041016,0.91503906,-25,-4,-1,-4,-24,-43,-5,2
85.76792895793915,true,-0.30419922,0.30517578,0.9526367,0.92134184,-0.0017700505,0.30517578,0.9526367,-19,3,0,5,7,38,4,2
85.79781997203827,true,-0.25,0.0048828125,1.0053711,0.9209878,-0.005371259,0.0048828125,1.0053711,10,2,-1,6,-6,25,3,5
85.7999529838562,true,-0.265625,-0.067871094,1.0219727,0.9208292,-0.010925195,-0.067871094,1.0219727,-18,-1,0,9,-10,17,1,0
85.82786691188812,true,-0.30615234,-0.036621094,0.9970703,0.92108065,-0.014404283,-0.036621094,0.9970703,0,-1,-2,1,-2,8,-1,1
85.85793101787567,false,-0.34326172,-0.041015625,0.99121094,0.9212907,-0.015808553,-0.041015625,0.99121094,7,-3,-10,-4,0,5,0,0
85.8599169254303,false,-0.32421875,-0.04345703,0.99316406,0.92138904,-0.014465368,-0.04345703,0.99316406,1,4,2,17,-1,8,1,0
85.88780891895294,false,-0.25732422,-0.016601562,0.9765625,0.92161554,-0.01074272,-0.016601562,0.9765625,1,2,1,-8,-1,-1,-2,0
85.9181889295578,false,-0.1899414,0.045898438,0.9658203,0.9216337,-0.005310075,0.045898438,0.9658203,-2,-6,0,6,-4,8,-4,-3
85.91988098621368,false,-0.15527344,0.08691406,0.93115234,0.9212751,-0.000793466,0.08691406,0.93115234,1,3,0,-6,4,5,1,0
85.94798994064331,false,-0.15527344,0.043945312,0.8979492,0.92065746,0.00085449516,0.043945312,0.8979492,-1,1,0,-4,-1,-2,-8,0
85.97798895835876,false,-0.14111328,0.0053710938,0.9116211,0.9197577,0.0026245657,0.0053710938,0.9116211,0,-3,0,2,-4,0,2,-1
85.97994101047516,false,-0.15527344,0.014160156,0.88964844,0.91889477,0.007202231,0.014160156,0.88964844,-3,-2,-1,-6,0,-1,2,0
86.0078809261322,false,-0.17236328,0.005859375,0.8745117,0.91823566,0.013244958,0.005859375,0.8745117,5,1,-3,4,-2,-1,6,3
86.03797900676727,false,-0.1640625,-0.0073242188,0.859375,0.9175457,0.020629976,-0.0073242188,0.859375,-2,-1,0,-2,-8,-3,-2,-2
86.03986096382141,false,-0.1875,0.00390625,0.85546875,0.91638356,0.02996832,0.00390625,0.85546875,-2,-1,4,1,-8,-10,-6,-1
86.06790900230408,false,-0.21484375,0.032714844,0.8852539,0.9147998,0.03985617,0.032714844,0.8852539,-2,-4,0,2,3,-1,4,-1
86.09802401065826,false,-0.26708984,0.016113281,0.88671875,0.9124947,0.049988844,0.016113281,0.88671875,-2,-4,0,9,4,0,-1,-3
86.10004794597626,false,-0.328125,0.029296875,0.90966797,0.90949214,0.060303215,0.029296875,0.90966797,-1,-1,-7,-3,3,7,-3,0
86.12801492214203,false,-0.30615234,0.038085938,0.921875,0.9054611,0.06994664,0.038085938,0.921875,1,-1,0,-3,-3,-6,5,0
86.15796601772308,false,-0.29833984,0.032226562,0.94970703,0.9006153,0.078128606,0.032226562,0.94970703,1,2,1,0,-8,1,4,1
86.15998899936676,false,-0.3466797,0.0068359375,0.94921875,0.8951697,0.08557397,0.0068359375,0.94921875,-1,0,-2,-6,-7,0,-2,0
86.18785095214844,false,-0.3408203,-0.020019531,0.9404297,0.888704,0.09399754,-0.020019531,0.9404297,-4,-3,-1,-2,-1,1,-4,-2
86.21790993213654,false,-0.33789062,-0.009765625,0.9086914,0.8807627,0.10547179,-0.009765625,0.9086914,-2,-3,1,-3,-1,2,0,-2
86.21991801261902,false,-0.3774414,0.07080078,0.89453125,0.8715398,0.11957045,0.07080078,0.89453125,-2,1,-2,-5,0,-4,-5,-3
86.24792194366455,false,-0.4765625,0.09277344,0.87353516,0.8620249,0.1324502,0.09277344,0.87353516,0,0,2,1,3,-3,0,1
86.27815091609955,false,-0.5366211,0.040039062,0.8935547,0.85256386,0.14209397,0.040039062,0.8935547,-1,-1,-2,-8,-1,-1,1,-2
86.2800589799881,false,-0.5600586,-0.009765625,0.8979492,0.84253865,0.15002608,-0.009765625,0.8979492,1,-3,-1,0,0,-4,-4,-2
86.30784201622009,false,-0.6113281,-0.013671875,0.89453125,0.8321014,0.15783864,-0.013671875,0.89453125,1,0,-3,0,-3,-4,-2,0
86.33795893192291,false,-0.6669922,-0.0043945312,0.86572266,0.82131726,0.16589925,-0.0043945312,0.86572266,110,98,-102,-45,43,-33,102,112
86.33982992172241,false,-0.72265625,0.013183594,0.8310547,0.810152,0.17444544,0.013183594,0.8310547,-77,-88,43,22,-21,8,-51,-73
86.36794698238373,false,-0.74853516,-0.0024414062,0.80908203,0.7989703,0.18195038,-0.0024414062,0.80908203,5,5,1,7,10,16,1,-5
86.39786291122437,false,-0.7319336,-0.020507812,0.80810547,0.7879755,0.18774691,-0.020507812,0.80810547,-6,-3,8,4,-4,-5,-11,-3
86.4287439584732,false,-0.7426758,-0.037597656,0.8120117,0.7768767,0.19281532,-0.037597656,0.8120117,-13,-7,15,5,-17,-6,-17,-6
86.43074595928192,false,-0.7993164,-0.032226562,0.79296875,0.7657092,0.19855337,-0.032226562,0.79296875,-19,-17,15,4,-17,-2,-20,-15
86.45785892009735,false,-0.8129883,-0.040039062,0.7519531,0.7545194,0.20483474,-0.040039062,0.7519531,-6,-2,7,2,-5,0,-5,-6
86.45986700057983,false,-0.78808594,-0.045410156,0.72265625,0.7433828,0.21161903,-0.045410156,0.72265625,-4,-4,2,-1,-7,-1,-3,-3
86.48802495002747,false,-0.7753906,-0.020507812,0.74658203,0.7327482,0.21845113,-0.020507812,0.74658203,-5,-4,2,3,-8,-1,-2,-1
86.51784491539001,false,-0.8222656,0.019042969,0.7421875,0.7229356,0.22468136,0.019042969,0.7421875,-8,-7,2,1,-3,1,-5,-4
86.51996791362762,false,-0.86621094,0.033691406,0.74560547,0.7142715,0.23023687,0.033691406,0.74560547,-7,-5,0,0,-4,-4,-6,-4
86.5481309890747,false,-0.8774414,0.010253906,0.71777344,0.7068736,0.23444447,0.010253906,0.71777344,-3,-5,0,-1,-2,2,-1,-3
86.57778692245483,false,-0.8491211,-0.018554688,0.7060547,0.7003203,0.23791604,-0.018554688,0.7060547,-4,-2,0,4,-1,-1,-3,0
86.57988691329956,false,-0.80859375,-0.03466797,0.6850586,0.6945127,0.24047634,-0.03466797,0.6850586,-1,-2,-2,-3,-1,-2,-3,-1
86.60810399055481,false,-0.7973633,-0.056152344,0.6557617,0.6890459,0.24237765,-0.056152344,0.6557617,-1,-1,1,-4,-1,-3,-2,-1
86.63784897327423,false,-0.7949219,-0.072265625,0.62841797,0.683749,0.24427454,-0.072265625,0.62841797,-2,-2,0,-2,1,-1,-4,-4
86.6398059129715,false,-0.7836914,-0.09082031,0.5864258,0.67837435,0.24677591,-0.09082031,0.5864258,-1,-1,-2,-3,-4,-3,0,-1
86.66796493530273,false,-0.75878906,-0.09423828,0.55908203,0.6728498,0.24993831,-0.09423828,0.55908203,-1,-3,0,0,0,-1,-3,-1
86.69786596298218,false,-0.7548828,-0.10205078,0.5332031,0.6670646,0.2534223,-0.10205078,0.5332031,0,-1,0,1,2,-2,1,1
86.69972395896912,false,-0.7729492,-0.10449219,0.5185547,0.6611324,0.25677475,-0.10449219,0.5185547,0,2,2,1,-1,1,2,-1
86.72782301902771,false,-0.80126953,-0.12011719,0.5078125,0.65510064,0.25964764,-0.12011719,0.5078125,-1,-1,-2,-1,1,1,-2,-1
86.78842198848724,false,-0.8100586,-0.1303711,0.484375,0.64891726,0.2625698,-0.1303711,0.484375,-1,-3,-2,-4,-2,-2,-2,-1
86.79044890403748,false,-0.8198242,-0.1508789,0.45654297,0.64241415,0.2663043,-0.1508789,0.45654297,-1,0,2,0,1,-3,0,1
86.81805992126465,false,-0.88427734,-0.12939453,0.4970703,0.62898093,0.27734977,-0.12939453,0.4970703,0,0,2,2,-2,-3,0,0
86.82003390789032,false,-0.9199219,-0.10839844,0.52001953,0.62355435,0.28302872,-0.10839844,0.52001953,-3,-2,-2,-1,-3,0,0,-2
86.84781098365784,false,-0.91748047,-0.10644531,0.5385742,0.61944586,0.2877808,-0.10644531,0.5385742,0,1,-2,-1,-1,-1,0,1
86.87804198265076,false,-0.89404297,-0.08300781,0.5410156,0.61646575,0.29181412,-0.08300781,0.5410156,0,0,-1,1,-2,-4,-3,-1
86.87990200519562,false,-0.8779297,-0.068359375,0.54296875,0.6148314,0.2947504,-0.068359375,0.54296875,1,-1,-4,-2,5,1,-3,-3
86.90787601470947,false,-0.88378906,-0.087890625,0.5629883,0.6144486,0.2965125,-0.087890625,0.5629883,-2,-1,-1,-2,-3,1,0,-1
86.93854796886444,false,-0.8535156,-0.10205078,0.58984375,0.6150571,0.2976713,-0.10205078,0.58984375,1,0,0,0,2,2,-1,-1
86.93986093997955,false,-0.86083984,-0.10595703,0.5986328,0.6159842,0.29908073,-0.10595703,0.5986328,-1,-1,-2,-1,-3,1,0,-1
86.96780896186829,false,-0.88916016,-0.080078125,0.6123047,0.6175058,0.30133697,-0.080078125,0.6123047,-1,-2,0,1,1,1,0,2
87.02823090553284,false,-0.91015625,-0.044921875,0.5913086,0.6200013,0.30389708,-0.044921875,0.5913086,0,0,-2,-3,2,-1,-2,-1
87.03002297878265,false,-0.9160156,-0.028808594,0.6118164,0.62389785,0.30578443,-0.028808594,0.6118164,0,-1,2,2,-3,1,3,-1
87.05803799629211,false,-0.90625,-0.013183594,0.62597656,0.6357987,0.30541775,-0.013183594,0.62597656,-1,1,3,8,7,1,2,0
87.05999195575714,false,-0.8769531,-0.017089844,0.62353516,0.6438723,0.30280125,-0.017089844,0.62353516,-1,-1,-1,4,3,0,-2,0
87.08800292015076,false,-0.82128906,-0.040527344,0.61621094,0.65273523,0.299328,-0.040527344,0.61621094,-1,0,0,1,6,-2,-1,-1
87.11781191825867,false,-0.7866211,-0.04736328,0.6142578,0.6612746,0.29657868,-0.04736328,0.6142578,1,-2,-2,-6,-5,-1,0,-2
87.12057292461395,false,-0.77441406,-0.033691406,0.61083984,0.6694421,0.29510874,-0.033691406,0.61083984,-2,-2,-3,-4,-2,0,-2,-2
87.14873600006104,false,-0.7602539,-0.001953125,0.60253906,0.6773202,0.29431722,-0.001953125,0.60253906,0,-1,0,0,-6,-2,-2,0
87.17783093452454,false,-0.73535156,0.018066406,0.60498047,0.6850879,0.29371375,0.018066406,0.60498047,0,-3,-1,-3,-8,0,-1,0
87.18078792095184,false,-0.7451172,0.053710938,0.5996094,0.6928806,0.2932169,0.053710938,0.5996094,-1,-2,-4,-1,-6,-1,-1,1
87.20844292640686,false,-0.75927734,0.071777344,0.61621094,0.7007666,0.29200134,0.071777344,0.61621094,-1,0,-3,-3,-2,-2,1,0
87.23793995380402,false,-0.7788086,0.07861328,0.62646484,0.70875216,0.28979978,0.07861328,0.62646484,0,3,1,3,2,-2,1,-1
87.24038398265839,false,-0.7963867,0.063964844,0.6538086,0.7163248,0.28729898,0.063964844,0.6538086,-3,0,-2,-2,3,-3,-2,-1
87.26866793632507,false,-0.7993164,0.06689453,0.66064453,0.7232946,0.28547248,0.06689453,0.66064453,1,-1,-1,-4,-1,0,-1,0
87.29834592342377,false,-0.7890625,0.08496094,0.6777344,0.72956157,0.2849764,0.08496094,0.6777344,0,0,2,1,3,-1,1,-1
87.30056595802307,false,-0.77734375,0.123046875,0.6816406,0.73543704,0.28547093,0.123046875,0.6816406,-1,-2,1,1,-1,1,-2,-1
87.32857394218445,false,-0.7739258,0.14355469,0.68847656,0.74117905,0.28596094,0.14355469,0.68847656,-2,0,-1,0,1,-2,0,0
87.35800492763519,false,-0.76416016,0.16308594,0.6933594,0.7466514,0.286075,0.16308594,0.6933594,1,0,-1,-1,4,-1,0,-1
87.36047899723053,false,-0.7573242,0.18798828,0.6972656,0.7517369,0.28589928,0.18798828,0.6972656,-1,-2,-1,-3,-4,-1,0,0
87.3884869813919,false,-0.7651367,0.20410156,0.7011719,0.7566206,0.28473982,0.20410156,0.7011719,-1,-1,-2,-1,4,-2,-2,0
87.41800200939178,false,-0.77978516,0.19580078,0.6972656,0.7607185,0.28346118,0.19580078,0.6972656,0,0,-4,-7,-7,-1,0,-1
87.42068898677826,false,-0.7841797,0.17919922,0.68652344,0.7638477,0.28252906,0.17919922,0.68652344,0,1,0,1,2,1,-2,0
87.44857096672058,false,-0.7792969,0.15966797,0.6738281,0.7656992,0.2827197,0.15966797,0.6738281,-1,2,1,1,1,1,-3,0
87.4779269695282,false,-0.7602539,0.16796875,0.64697266,0.7664315,0.28467283,0.16796875,0.64697266,-1,-3,-1,-2,-1,-1,0,-1
87.48056101799011,false,-0.7573242,0.1875,0.63378906,0.7663595,0.28747636,0.1875,0.63378906,0,1,0,2,-5,0,0,-1
87.5085369348526,false,-0.76123047,0.20947266,0.6279297,0.7657794,0.28999028,0.20947266,0.6279297,-1,-3,-1,0,0,-1,1,-1
87.53799593448639,false,-0.76220703,0.20605469,0.6279297,0.76493406,0.29145867,0.20605469,0.6279297,-1,2,-1,-1,-11,-2,0,0
87.54059898853302,false,-0.76171875,0.19628906,0.64501953,0.76337254,0.29272684,0.19628906,0.64501953,-3,-4,-1,0,-10,-4,-1,0
87.5685099363327,false,-0.80810547,0.21582031,0.67871094,0.76080304,0.29498285,0.21582031,0.67871094,-1,-2,0,-1,-3,-1,-1,0
87.59796690940857,false,-0.85595703,0.24951172,0.7246094,0.7574557,0.2982825,0.24951172,0.7246094,-1,-5,-2,-3,1,-1,-1,-1
87.6010959148407,false,-0.90527344,0.29052734,0.7583008,0.7533273,0.30238077,0.29052734,0.7583008,-2,-1,-1,0,1,-1,1,0
87.62852990627289,false,-0.96972656,0.30615234,0.7885742,0.7491722,0.3050646,0.30615234,0.7885742,1,-2,0,-1,4,-4,-2,-2
87.65789794921875,false,-0.9580078,0.25439453,0.81591797,0.7448018,0.305904,0.25439453,0.81591797,-4,0,-1,6,2,1,-1,-2
87.66060495376587,false,-0.8671875,0.19726562,0.8261719,0.7401775,0.30633718,0.19726562,0.8261719,4,16,-2,-2,2,1,0,3
87.68852996826172,false,-0.74853516,0.21826172,0.83740234,0.73553413,0.3079832,0.21826172,0.83740234,0,1,1,0,3,-1,-1,-2
87.718052983284,false,-0.68115234,0.2993164,0.8256836,0.7314639,0.30939507,0.2993164,0.8256836,-1,-10,-2,1,3,-4,0,-1
87.72044098377228,false,-0.65478516,0.3232422,0.8154297,0.72840726,0.30652434,0.3232422,0.8154297,-5,0,-4,-4,-1,2,-2,-4
87.74855196475983,false,-0.6298828,0.26513672,0.8276367,0.72509694,0.3001706,0.26513672,0.8276367,2,-3,-1,-2,-4,-1,0,2
87.7780259847641,false,-0.6230469,0.21582031,0.8305664,0.7200891,0.29437104,0.21582031,0.8305664,-3,-2,-2,-2,-3,-1,1,-4
87.78093898296356,false,-0.609375,0.20654297,0.8544922,0.7135249,0.29145265,0.20654297,0.8544922,-1,-1,0,0,0,-2,-2,0
87.80849492549896,false,-0.5805664,0.25097656,0.8701172,0.7061843,0.2912629,0.25097656,0.8701172,2,2,-1,-4,-1,-4,1,-1
87.838427901268,false,-0.56591797,0.28710938,0.9042969,0.6987932,0.29180977,0.28710938,0.9042969,2,3,-8,-5,-1,1,3,1
87.84048700332642,false,-0.5722656,0.38964844,0.94433594,0.6920344,0.29090104,0.38964844,0.94433594,-8,-3,25,31,15,0,-5,-4
87.868479013443,false,-0.59814453,0.47851562,0.9902344,0.6867085,0.28485188,0.47851562,0.9902344,3,1,0,-17,1,4,1,3
87.8979070186615,false,-0.5786133,0.48486328,1.0830078,0.68404514,0.27186018,0.48486328,1.0830078,5,-2,-3,-7,3,0,4,2
87.9004899263382,false,-0.47802734,0.50634766,1.1655273,0.6828744,0.25336176,0.50634766,1.1655273,-3,3,-7,17,-17,-2,-1,1
87.92880201339722,false,-0.453125,0.4609375,1.2167969,0.68241894,0.23247775,0.4609375,1.2167969,5,-6,-17,-14,-5,8,5,5
87.95801591873169,false,-0.37060547,0.421875,1.2172852,0.6824405,0.20898634,0.421875,1.2172852,0,8,-13,-2,0,-1,-4,-3
87.96060597896576,false,-0.25195312,0.3544922,1.2182617,0.6816462,0.18432769,0.3544922,1.2182617,2,-6,-6,-9,-3,0,2,0
87.98850297927856,false,-0.2109375,0.39257812,1.1157227,0.68108326,0.15911677,0.39257812,1.1157227,-10,-12,10,3,5,-6,-7,-7
88.01794695854187,false,-0.0625,0.3803711,0.9946289,0.6808983,0.13043024,0.3803711,0.9946289,4,8,5,-9,-16,-2,0,3
88.02097594738007,false,0.017578125,0.4038086,0.98583984,0.6807336,0.098695084,0.4038086,0.98583984,-8,-8,1,-40,52,3,-7,-6
88.04849994182587,false,0.0087890625,0.3857422,0.9375,0.68210995,0.062132064,0.3857422,0.9375,1,3,-3,4,-13,-4,-1,0
88.07791900634766,false,0.083984375,0.16357422,0.85791016,0.68370336,0.02038537,0.16357422,0.85791016,4,1,7,22,-23,1,3,3
88.0806599855423,false,0.203125,0.04736328,0.90283203,0.683049,-0.02063002,0.04736328,0.90283203,7,2,12,2,-15,-3,1,4
88.10853099822998,false,0.28808594,0.080078125,0.6923828,0.6807806,-0.06072949,0.080078125,0.6923828,1,2,6,12,-36,-8,-3,-2
88.13811993598938,false,0.4086914,0.10253906,0.62158203,0.67748356,-0.0985708,0.10253906,0.62158203,2,11,34,8,-17,3,7,5
88.14059591293335,false,0.43603516,0.040527344,0.53564453,0.6738181,-0.13635051,0.040527344,0.53564453,-4,-8,-17,-3,38,2,-4,-8
88.16851198673248,false,0.47265625,0.015625,0.48095703,0.6697871,-0.17223795,0.015625,0.48095703,-7,-9,-15,1,1,4,-3,-7
88.22848093509674,true,0.5600586,-0.021484375,0.4296875,0.66492397,-0.2066672,-0.021484375,0.4296875,-12,-1,-14,-14,21,-3,-6,-7
88.23040890693665,true,0.57421875,-0.088378906,0.41796875,0.6597165,-0.23736122,-0.088378906,0.41796875,7,5,5,7,4,-3,5,8
88.34781491756439,true,0.62402344,-0.1352539,0.37402344,0.65200967,-0.28465533,-0.1352539,0.37402344,3,-3,-7,6,12,3,1,1
88.34929490089417,true,0.6904297,-0.17773438,0.3959961,0.6488972,-0.30412477,-0.17773438,0.3959961,0,2,15,10,5,-6,-3,-2
88.35062599182129,true,0.6972656,-0.25048828,0.3647461,0.6423109,-0.3348879,-0.25048828,0.3647461,-3,0,-15,-20,-51,2,4,-1
88.37790393829346,true,0.74560547,-0.31152344,0.29052734,0.63584393,-0.35240573,-0.31152344,0.29052734,-3,4,12,36,36,3,5,3
88.40746200084686,true,0.7792969,-0.3173828,0.24414062,0.6302323,-0.35533723,-0.3173828,0.24414062,1,1,0,10,39,-2,-1,0
88.40913200378418,true,0.8310547,-0.3515625,0.20605469,0.6218884,-0.3576667,-0.3515625,0.20605469,-4,-3,-5,-4,-2,-1,-1,-1
88.43777191638947,true,0.83496094,-0.39257812,0.18457031,0.61167943,-0.35771835,-0.39257812,0.18457031,-2,0,-4,-12,-7,-4,-9,-3
88.49785792827606,true,0.82714844,-0.3569336,0.21484375,0.6011076,-0.34971535,-0.3569336,0.21484375,3,-2,1,-3,-9,-5,1,3
88.49958896636963,true,0.77246094,-0.37402344,0.2421875,0.5902407,-0.3374461,-0.37402344,0.2421875,1,-1,-10,-12,-9,-6,3,2
88.50192892551422,true,0.7211914,-0.4423828,0.24316406,0.5801205,-0.31871533,-0.4423828,0.24316406,3,-3,-4,-3,-4,6,-1,-4
88.52799594402313,true,0.66796875,-0.4892578,0.29541016,0.57128435,-0.2909522,-0.4892578,0.29541016,33,5,9,13,16,-5,-9,1
88.52921998500824,true,0.61865234,-0.4326172,0.56689453,0.5652335,-0.25164214,-0.4326172,0.56689453,31,14,10,1,-14,12,-6,33
88.55788993835449,true,0.38671875,-0.28857422,1.1591797,0.5608324,-0.20464371,-0.28857422,1.1591797,-66,22,-7,10,27,-25,21,57
88.58752298355103,true,-0.096191406,-0.18359375,1.7475586,0.55328685,-0.15966888,-0.18359375,1.7475586,-9,58,12,-7,52,-8,-44,-65
88.61755192279816,true,-0.15917969,-0.2919922,1.0429688,0.54448074,-0.12701093,-0.2919922,1.0429688,71,-15,2,-9,-3,20,-18,-29
88.61941599845886,true,0.2919922,-0.23046875,0.56103516,0.5279524,-0.07714819,-0.23046875,0.56103516,-44,-3,-22,-12,-22,-12,18,2
88.64739191532135,true,-1.2680664,1.4824219,1.1333008,0.5128018,-0.021788891,1.4824219,1.1333008,-18,-32,-17,-13,-13,25,-14,-13
88.6492909193039,true,-1.3837891,2.065918,1.246582,0.52337706,-0.0032348672,2.065918,1.246582,20,88,-13,-19,-9,71,44,-2
88.67787897586823,true,-0.23632812,0.84765625,1.487793,0.5169015,-0.018981742,0.84765625,1.487793,49,-6,15,9,-38,-17,-20,7
88.7074179649353,true,0.11035156,0.009765625,1.3388672,0.49814898,-0.04296703,0.009765625,1.3388672,-32,-31,-2,8,6,-35,8,7
88.70917499065399,true,0.45898438,-0.39404297,1.2045898,0.50430745,-0.054989837,-0.39404297,1.2045898,36,53,-4,0,1,-15,9,2
88.73805093765259,true,0.22998047,0.111328125,0.9770508,0.502931,-0.044799924,0.111328125,0.9770508,-3,-26,1,1,8,11,-6,-1
88.76741099357605,true,0.0107421875,0.34277344,0.94189453,0.50322294,-0.034423012,0.34277344,0.94189453,9,-29,-11,-2,15,-14,-5,-2
88.76945090293884,true,0.09472656,0.31054688,0.9423828,0.5043812,-0.031066073,0.31054688,0.9423828,5,-17,7,11,-20,-20,-5,0
88.79814791679382,true,0.076660156,0.23095703,0.9189453,0.50346655,-0.03185956,0.23095703,0.9189453,2,-9,-2,1,-5,0,3,-1
88.82750296592712,true,0.029785156,0.16064453,0.9199219,0.50372493,-0.03302014,0.16064453,0.9199219,-11,-6,0,-1,-4,-2,2,1
88.8292019367218,true,-0.03564453,0.15966797,0.9145508,0.50414956,-0.03198237,0.15966797,0.9145508,-3,-4,-1,0,-3,1,-1,-3
88.85786390304565,true,-0.059570312,0.16455078,0.88623047,0.5050553,-0.02960143,0.16455078,0.88623047,0,-4,0,-5,-3,-1,-2,-1
88.88750994205475,false,-0.072753906,0.17675781,0.84521484,0.5056766,-0.02581789,0.17675781,0.84521484,-2,-4,-1,1,-7,-6,-1,1
88.88924896717072,false,-0.09863281,0.18164062,0.8232422,0.50590163,-0.020751184,0.18164062,0.8232422,-4,-3,2,0,3,0,-1,1
88.91795992851257,false,-0.11230469,0.17382812,0.8017578,0.50577503,-0.014891891,0.17382812,0.8017578,0,-1,-3,-1,-3,-1,-1,-1
88.94780695438385,false,-0.10546875,0.18066406,0.79052734,0.50537884,-0.007873656,0.18066406,0.79052734,-2,-4,-1,-4,-2,-1,-2,-2
88.9492700099945,false,-0.08935547,0.19433594,0.7573242,0.50463104,0.0005493081,0.19433594,0.7573242,0,-3,1,1,-2,-2,-1,-2
88.97790396213531,false,-0.06689453,0.20800781,0.7363281,0.5040192,0.011413367,0.20800781,0.7363281,-1,2,-1,2,1,-4,1,0
89.00749695301056,false,-0.044921875,0.21582031,0.72314453,0.5035462,0.024719538,0.21582031,0.72314453,0,-2,-1,0,1,-2,1,0
89.00966393947601,false,-0.043945312,0.22216797,0.7128906,0.5032481,0.03997908,0.22216797,0.7128906,-2,-3,-1,-5,1,-1,0,1
89.03799796104431,false,-0.052246094,0.17236328,0.7324219,0.50323784,0.056335784,0.17236328,0.7324219,-1,1,-2,0,-9,-4,1,0
89.0675299167633,false,-0.04736328,0.125,0.7583008,0.50261617,0.07513303,0.125,0.7583008,-2,-2,-2,-1,-4,-1,1,0
89.06938993930817,false,-0.04638672,0.0859375,0.80810547,0.500558,0.09619308,0.0859375,0.80810547,0,1,-2,-2,-5,-6,-2,-3
89.09794700145721,false,-0.053710938,0.12939453,0.82910156,0.49603018,0.119140014,0.12939453,0.82910156,-1,0,1,3,-4,0,-2,-1
89.12778294086456,false,-0.083984375,0.20947266,0.8364258,0.4895429,0.14257228,0.20947266,0.8364258,-1,-3,-1,0,-5,-2,0,-1
89.12921893596649,false,-0.16259766,0.2685547,0.89941406,0.48163486,0.16571265,0.2685547,0.89941406,1,-5,-2,-1,5,2,-3,-1
89.15803790092468,false,-0.27978516,0.27197266,0.93066406,0.47393787,0.18737788,0.27197266,0.93066406,1,-1,1,5,14,1,1,-2
89.187548995018,false,-0.38330078,0.19482422,1.0083008,0.46679983,0.20739877,0.19482422,1.0083008,1,4,-1,-14,-1,0,-1,0
89.18931996822357,false,-0.45751953,0.11279297,1.0541992,0.459342,0.22686343,0.11279297,1.0541992,-2,2,1,4,-6,-7,2,2
89.21793293952942,false,-0.5756836,0.10839844,1.0908203,0.45050117,0.24792519,0.10839844,1.0908203,-2,-2,-2,-4,6,1,0,-1
89.2482179403305,false,-0.6616211,0.17089844,1.0668945,0.44092438,0.27014554,0.17089844,1.0668945,-1,2,0,0,-10,-8,-3,-1
89.25001096725464,false,-0.70166016,0.21386719,1.0419922,0.43029886,0.2918708,0.21386719,1.0419922,0,-2,-1,2,2,-1,-3,1
89.27795898914337,false,-0.6772461,0.24169922,1.03125,0.41907418,0.31146744,0.24169922,1.03125,1,-4,-1,10,-8,7,1,-1
89.3080530166626,false,-0.7001953,0.27001953,1.0419922,0.4075897,0.32836667,0.27001953,1.0419922,0,0,-1,0,-1,2,0,-1
89.30994093418121,false,-0.80029297,0.26953125,0.99902344,0.39704213,0.3414379,0.26953125,0.99902344,-3,-1,-2,-5,-1,1,0,-1
89.33788096904755,false,-0.81933594,0.20654297,0.9819336,0.38720492,0.3516216,0.20654297,0.9819336,0,1,-1,-1,1,-1,-1,0
89.36804497241974,false,-0.78759766,0.13134766,0.95996094,0.37683192,0.35998616,0.13134766,0.95996094,-1,-2,-1,-2,-1,-4,-1,0
89.36997890472412,false,-0.7832031,0.110839844,0.92626953,0.36565796,0.36761105,0.110839844,0.92626953,-3,-1,-2,-1,2,-3,0,-2
89.39796495437622,false,-0.7548828,0.12207031,0.92578125,0.35356435,0.37413248,0.12207031,0.92578125,0,-1,0,-4,5,7,1,0
89.42791092395782,false,-0.75146484,0.14257812,0.90527344,0.3408139,0.3790822,0.14257812,0.90527344,1,2,-3,-2,-6,-4,-2,-2
89.42989099025726,false,-0.7138672,0.18603516,0.89501953,0.3282439,0.38219845,0.18603516,0.89501953,0,0,-3,-5,-11,-1,-1,0
89.45788490772247,false,-0.69628906,0.21777344,0.9057617,0.3162291,0.383308,0.21777344,0.9057617,-2,0,1,8,-1,0,0,1
89.48799896240234,false,-0.7192383,0.23535156,0.91845703,0.30438885,0.3826376,0.23535156,0.91845703,-2,0,-3,-4,-4,0,2,1
89.4899150133133,false,-0.7216797,0.27734375,0.95703125,0.2932729,0.3802477,0.27734375,0.95703125,-2,-1,6,1,0,-5,1,-3
89.51783299446106,false,-0.72509766,0.3071289,0.9765625,0.2835684,0.37560913,0.3071289,0.9765625,1,0,-2,-5,4,5,-1,-1
89.54800498485565,false,-0.69970703,0.27685547,0.95654297,0.27568993,0.3685224,0.27685547,0.95654297,-1,-1,-1,-4,1,-7,-3,-3
89.54995799064636,false,-0.63916016,0.24804688,0.9448242,0.26928148,0.35979474,0.24804688,0.9448242,0,-1,-2,0,1,-3,-3,-2
89.57795596122742,false,-0.6074219,0.21240234,0.9042969,0.26409227,0.3503937,0.21240234,0.9042969,-1,-1,-2,0,2,-4,0,-1
