time,gesture,ax,ay,az,qw,qx,qy,qz,e0,e1,e2,e3,e4,e5,e6,e7
13.37709105014801,false,0.043945312,-0.043945312,0.98583984,-0.7101578,-0.0012206219,-0.043945312,0.98583984,-2,-5,-4,-2,3,-1,-1,-3
13.381040096282959,false,0.045898438,-0.03515625,1.0083008,-0.7102234,-0.0014037241,-0.03515625,1.0083008,2,0,1,8,12,2,1,0
13.382407069206238,false,0.041015625,-0.046875,1.0053711,-0.7102234,-0.0014037241,-0.046875,1.0053711,1,0,-2,-7,-3,4,0,-1
13.383465051651001,false,0.04248047,-0.04248047,0.99560547,-0.7102234,-0.0014037241,-0.04248047,0.99560547,-1,2,-11,-13,3,-9,-2,-2
13.394687056541443,false,0.038085938,-0.04345703,0.9902344,-0.7102234,-0.0014037241,-0.04345703,0.9902344,-2,-3,-2,-4,-22,-3,-3,1
13.424729108810425,false,0.0390625,-0.036621094,0.9926758,-0.71010554,-0.0014647644,-0.036621094,0.9926758,0,0,6,9,9,2,1,0
13.427149057388306,false,0.03466797,-0.037597656,1.0014648,-0.7101068,-0.0014647669,-0.037597656,1.0014648,-1,-4,-4,-7,-1,1,-2,0
13.454829096794128,false,0.04296875,-0.041503906,0.9946289,-0.7101068,-0.0014647669,-0.041503906,0.9946289,-1,-1,-1,-4,-4,-2,-2,-3
13.484204053878784,false,0.045898438,-0.041503906,0.99316406,-0.71010554,-0.0014647644,-0.041503906,0.99316406,0,-3,1,-3,4,3,2,-1
13.486513018608093,false,0.049804688,-0.0390625,0.984375,-0.71004575,-0.0017088947,-0.0390625,0.984375,-2,-5,0,-1,3,3,-1,0
13.514352083206177,false,0.04736328,-0.037109375,0.9824219,-0.71004575,-0.0017088947,-0.037109375,0.9824219,-2,2,-4,-3,-27,-3,-3,-3
13.543875098228455,false,0.045898438,-0.041015625,0.97802734,-0.71005076,-0.0016478744,-0.041015625,0.97802734,2,1,1,5,18,-2,2,-1
13.546233057975769,false,0.0390625,-0.044921875,0.9848633,-0.71005946,-0.0014647952,-0.044921875,0.9848633,0,-2,2,2,7,11,-2,1
13.574679017066956,false,0.04248047,-0.046875,1.0,-0.71003884,-0.0012206272,-0.046875,1.0,-1,0,2,-1,7,2,1,-1
13.604730010032654,false,0.033203125,-0.038085938,1.012207,-0.71011025,-0.00097651605,-0.038085938,1.012207,1,2,-3,-2,-17,-4,-1,0
13.607081055641174,false,0.024902344,-0.049804688,1.0078125,-0.7102343,-0.0006103242,-0.049804688,1.0078125,-6,-9,-8,-11,16,-5,-4,-4
13.63468611240387,false,0.022949219,-0.059570312,0.98291016,-0.71054494,-0.00030516446,-0.059570312,0.98291016,3,6,13,25,-1,4,2,2
13.663868069648743,false,-0.0043945312,-0.04248047,0.98779297,-0.7108424,-0.0004272256,-0.04248047,0.98779297,0,4,-8,-3,1,2,-2,-1
13.666192054748535,false,0.0053710938,-0.0107421875,1.0195312,-0.7110716,-0.0003661857,-0.0107421875,1.0195312,-2,0,1,-7,4,0,-1,2
13.694287061691284,false,0.0107421875,-0.026855469,1.0429688,-0.7111313,0.0,-0.026855469,1.0429688,0,-1,-1,0,2,-2,0,-2
13.724122047424316,false,0.04638672,-0.060546875,1.0405273,-0.7115075,-0.00030515846,-0.060546875,1.0405273,-2,-1,-3,-2,8,-4,-2,0
13.726495027542114,false,0.051757812,-0.072265625,1.027832,-0.7118897,-0.0015868598,-0.072265625,1.027832,-1,-1,-1,-1,-29,-3,0,-2
13.784210085868835,false,0.052246094,-0.07861328,1.0078125,-0.7124883,-0.0036008917,-0.07861328,1.0078125,-2,1,2,1,9,-3,-1,0
13.78640604019165,false,0.045898438,-0.05517578,1.0058594,-0.7133579,-0.0056761024,-0.05517578,1.0058594,-2,-4,-1,-1,6,-12,-3,-2
13.814917087554932,false,0.014160156,-0.045898438,0.9892578,-0.71561843,-0.0062254225,-0.045898438,0.9892578,-1,-1,-3,-4,10,-2,-2,-1
13.874751091003418,false,-0.00048828125,-0.067871094,0.9663086,-0.7169264,-0.00512657,-0.067871094,0.9663086,-1,-2,-5,-5,-1,8,-2,-2
13.878711104393005,false,-0.020507812,-0.071777344,0.9736328,-0.71830565,-0.003845123,-0.071777344,0.9736328,0,-2,3,4,5,5,2,-1
13.904141068458557,false,-0.053222656,-0.043945312,0.99853516,-0.7216048,-0.0012206797,-0.043945312,0.99853516,2,1,-2,1,-4,-2,-1,-2
13.964104056358337,false,-0.045410156,-0.038085938,0.9951172,-0.72349745,0.0004882723,-0.038085938,0.9951172,-2,0,6,5,0,3,3,-1
13.966502070426941,false,-0.052734375,-0.05029297,0.9975586,-0.7255879,0.0023801774,-0.05029297,0.9975586,-1,-2,-5,-2,-2,14,-1,-1
13.995115041732788,false,-0.03173828,-0.037597656,0.99365234,-0.7334142,0.0065303585,-0.037597656,0.99365234,-1,0,0,-2,-2,-8,-2,0
14.054249048233032,false,-0.015136719,-0.025878906,1.003418,-0.73654085,0.0074459715,-0.025878906,1.003418,1,1,-5,-4,-6,1,-2,-1
14.056740045547485,false,-0.026367188,-0.022460938,1.003418,-0.739993,0.008605279,-0.022460938,1.003418,0,0,3,4,1,0,0,0
14.084786057472229,false,-0.016601562,-0.05419922,0.98339844,-0.74782777,0.01184025,-0.05419922,0.98339844,-1,1,7,4,12,-4,0,-2
14.087237000465393,false,0.0,-0.05810547,0.98779297,-0.752098,0.012999828,-0.05810547,0.98779297,-1,-3,-6,-1,-4,5,4,0
14.144942045211792,false,0.015625,-0.046875,0.9941406,-0.75659925,0.0134267835,-0.046875,0.9941406,1,-2,-1,2,-5,2,9,0
14.14745807647705,false,0.01953125,-0.016601562,1.0273438,-0.76096517,0.01306116,-0.016601562,1.0273438,-1,4,4,3,14,-7,-5,-2
14.173755049705505,false,0.14355469,-0.0053710938,0.99658203,-0.76921296,0.009399254,-0.0053710938,0.99658203,-2,-4,-1,-11,-5,-9,-2,0
14.20408809185028,false,0.2607422,0.009765625,0.9868164,-0.7726671,0.0036008973,0.009765625,0.9868164,0,4,1,2,4,0,3,3
14.205613017082214,false,0.3100586,0.056152344,0.96533203,-0.77516454,-0.0049435734,0.056152344,0.96533203,1,-7,3,-3,17,1,2,3
14.234760046005249,false,0.2758789,0.16845703,0.9824219,-0.7764589,-0.014891996,0.16845703,0.9824219,0,-1,-2,2,-23,2,2,0
14.2637220621109,false,0.24121094,0.22851562,1.0,-0.7761026,-0.023009649,0.22851562,1.0,-1,1,-2,2,9,-5,0,-3
14.294321060180664,false,0.26464844,0.1772461,0.9614258,-0.7743206,-0.027952932,0.1772461,0.9614258,-1,-6,-4,-1,-3,13,-7,-4
14.29601001739502,false,0.3095703,0.049316406,0.97558594,-0.7712381,-0.03124744,0.049316406,0.97558594,-1,-2,1,3,1,-7,-12,32
14.323958039283752,false,0.28808594,-0.013183594,1.0126953,-0.76742333,-0.035704043,-0.013183594,1.0126953,-6,-9,-3,0,4,-1,3,2
14.326715111732483,false,0.14746094,0.052246094,1.1303711,-0.7629213,-0.042784624,0.052246094,1.1303711,2,-6,4,3,2,3,24,-11
14.353933095932007,false,-0.013183594,0.12939453,1.1010742,-0.7580762,-0.04864236,0.12939453,1.1010742,2,-3,-8,-4,-5,-20,-2,-2
14.385142087936401,false,-0.0859375,0.107421875,0.9868164,-0.7535216,-0.051451378,0.107421875,0.9868164,-2,6,2,-4,-8,15,-13,-2
14.387243032455444,false,-0.09472656,0.026367188,0.89160156,-0.7484393,-0.052609857,0.026367188,0.89160156,4,11,2,1,1,7,3,0
14.41440200805664,false,-0.06982422,-0.056152344,0.89697266,-0.74322623,-0.052424975,-0.056152344,0.89697266,2,7,0,-1,-6,20,9,1
14.444651007652283,false,-0.021972656,0.00048828125,0.91064453,-0.7384852,-0.05346389,0.00048828125,0.91064453,-6,-4,-6,-2,8,-18,-30,-16
14.44656503200531,false,0.045898438,0.055664062,0.9321289,-0.73409754,-0.054501917,0.055664062,0.9321289,-3,-4,-2,-6,4,-12,-6,-14
14.473887085914612,false,0.04736328,0.037597656,0.96875,-0.73084134,-0.053157646,0.037597656,0.96875,1,1,3,3,39,-7,10,5
14.50411307811737,false,0.04638672,-0.020507812,0.9794922,-0.7283635,-0.05157258,-0.020507812,0.9794922,0,0,-2,2,1,12,-12,-6
14.506216049194336,false,0.044921875,-0.009277344,0.9975586,-0.7265331,-0.051694687,-0.009277344,0.9975586,-6,-5,1,-5,-13,-6,0,1
14.564068078994751,false,-0.022949219,0.08251953,1.0317383,-0.7250303,-0.054198746,0.08251953,1.0317383,2,2,-1,-2,-15,-3,5,3
14.56623899936676,false,-0.052734375,0.11425781,1.0673828,-0.72416073,-0.056394815,0.11425781,1.0673828,0,-3,0,3,-3,12,5,3
14.594290018081665,false,0.017578125,0.045410156,1.0332031,-0.7245803,-0.057675906,0.045410156,1.0332031,5,6,-1,0,-3,-5,3,4
14.59535300731659,false,0.045898438,0.06542969,1.0102539,-0.7249823,-0.061946046,0.06542969,1.0102539,-3,-13,-6,-2,29,-3,-2,-2
14.62406301498413,false,0.07080078,0.087402344,1.0048828,-0.7251205,-0.06682997,0.087402344,1.0048828,-3,0,6,1,-5,-5,0,0
14.626383066177368,false,0.07861328,0.08691406,0.9970703,-0.72562015,-0.07092023,0.08691406,0.9970703,-3,-3,2,3,7,2,0,0
14.654245018959045,false,0.12841797,0.076171875,0.9692383,-0.726108,-0.07421596,0.076171875,0.9692383,5,1,3,2,-22,3,5,1
14.684527039527893,false,0.122558594,0.08251953,0.95703125,-0.726292,-0.07702357,0.08251953,0.95703125,0,2,0,-3,4,-4,-3,-1
14.686751008033752,false,0.12988281,0.10839844,0.9663086,-0.7259736,-0.07989067,0.10839844,0.9663086,1,5,1,-2,-24,-3,-4,0
14.714179039001465,false,0.1303711,0.104003906,1.0024414,-0.72542995,-0.08135606,0.104003906,1.0024414,-3,-4,-1,0,16,2,-2,-2
14.745572090148926,false,0.1303711,0.072753906,1.0629883,-0.72495836,-0.08245654,0.072753906,1.0629883,0,-3,-4,0,-1,-4,-1,-1
14.74721610546112,false,0.13574219,0.079589844,1.0527344,-0.7245756,-0.08446872,0.079589844,1.0527344,-3,-2,-1,-3,9,1,-1,-3
14.773876070976257,false,0.15332031,0.068847656,1.0166016,-0.72439706,-0.08691056,0.068847656,1.0166016,-1,0,1,1,1,-10,-4,-2
14.804704070091248,false,0.18115234,0.057128906,0.9975586,-0.72427416,-0.09032828,0.057128906,0.9975586,2,2,-4,-1,2,1,1,0
14.806982040405273,false,0.17480469,0.07763672,1.0019531,-0.7238373,-0.094904475,0.07763672,1.0019531,-1,-1,1,0,5,0,0,0
14.83473002910614,false,0.14892578,0.13574219,0.9902344,-0.72324,-0.09984985,0.13574219,0.9902344,0,-1,-2,-4,0,2,2,2
14.894107103347778,false,0.13916016,0.16308594,0.97753906,-0.7225855,-0.1036363,0.16308594,0.97753906,-2,-4,-12,-13,1,-2,-1,-2
14.89638102054596,false,0.13867188,0.14697266,0.97753906,-0.721874,-0.10601075,0.14697266,0.97753906,-1,-2,4,6,1,27,-6,-3
14.924092054367065,false,0.1430664,0.1303711,0.96533203,-0.7198196,-0.109553695,0.1303711,0.96533203,-1,1,2,1,2,0,1,2
14.926603078842163,false,0.14648438,0.13916016,0.9711914,-0.71866846,-0.11132495,0.13916016,0.9711914,1,-1,-1,-2,-2,-9,-3,0
14.954289078712463,false,0.14697266,0.15039062,0.9741211,-0.71742356,-0.1130911,0.15039062,0.9741211,2,-2,-2,0,-1,-2,7,0
14.984320998191833,false,0.14013672,0.16552734,0.97314453,-0.7160396,-0.115047276,0.16552734,0.97314453,-1,1,-1,-1,-11,-4,0,0
14.986340999603271,false,0.1484375,0.1616211,0.9736328,-0.71446013,-0.116757415,0.1616211,0.9736328,2,1,1,1,3,0,-2,1
15.014178037643433,false,0.16064453,0.14257812,0.984375,-0.7126199,-0.11828172,0.14257812,0.984375,1,-2,-2,-2,-6,-11,-1,-2
15.074257016181946,false,0.16308594,0.14257812,0.9970703,-0.710706,-0.12023107,0.14257812,0.9970703,-1,0,-2,-2,-23,0,-1,0
15.07678210735321,false,0.17333984,0.14550781,0.97265625,-0.7087717,-0.122675546,0.14550781,0.97265625,0,-3,1,1,4,-5,-2,1
15.10416305065155,false,0.20654297,0.17773438,0.9458008,-0.7051658,-0.12804551,0.17773438,0.9458008,-4,-1,0,-1,-12,1,2,-1
15.106141090393066,false,0.19921875,0.18652344,0.9589844,-0.703209,-0.13042507,0.18652344,0.9589844,-2,-1,-3,-2,10,-5,-3,-5
15.134019017219543,false,0.1953125,0.18261719,0.97558594,-0.700996,-0.13249715,0.18261719,0.97558594,-3,-3,-2,-6,-1,-17,-3,-2
15.164178013801575,false,0.19921875,0.15283203,0.97314453,-0.69857585,-0.13469832,0.15283203,0.97314453,-6,-1,-1,0,-23,18,-8,-4
15.166208028793335,false,0.20166016,0.15673828,0.97265625,-0.69631207,-0.13762677,0.15673828,0.97265625,3,0,-1,1,5,1,2,1
15.19455599784851,false,0.20117188,0.17675781,0.9667969,-0.6941667,-0.14128679,0.17675781,0.9667969,-3,-2,-5,-1,7,4,1,-2
15.225098013877869,false,0.19873047,0.20654297,0.95654297,-0.69201386,-0.14562932,0.20654297,0.95654297,-1,1,1,2,6,1,1,0
15.228317022323608,false,0.19628906,0.23583984,0.93896484,-0.6901451,-0.14995459,0.23583984,0.93896484,0,-2,0,0,1,-46,-9,-3
15.253727078437805,false,0.19580078,0.2446289,0.9458008,-0.68837756,-0.15373908,0.2446289,0.9458008,-2,-2,-2,-1,0,-7,-1,-2
15.283644080162048,false,0.1977539,0.25146484,0.9291992,-0.68671966,-0.15776488,0.25146484,0.9291992,-1,-3,-2,0,19,-2,0,-3
15.285572052001953,false,0.20117188,0.2529297,0.9199219,-0.68494856,-0.16197571,0.2529297,0.9199219,1,1,0,-4,-5,9,2,3
15.31381607055664,false,0.19873047,0.26123047,0.91064453,-0.6831527,-0.16637847,0.26123047,0.91064453,-3,-10,-1,0,-26,7,-5,-2
15.343952059745789,false,0.19824219,0.28710938,0.90625,-0.6814029,-0.17106783,0.28710938,0.90625,0,1,1,1,4,-1,7,0
15.345802068710327,false,0.18603516,0.31689453,0.8901367,-0.67970395,-0.17583075,0.31689453,0.8901367,-4,0,1,6,4,10,3,-2
15.404036045074463,false,0.19189453,0.31835938,0.89941406,-0.67830884,-0.179678,0.31835938,0.89941406,-3,-10,0,2,2,2,-8,-6
15.40615701675415,false,0.18554688,0.3408203,0.8989258,-0.67724836,-0.18327267,0.3408203,0.8989258,1,12,-4,-3,4,11,0,0
15.494091033935547,false,0.17871094,0.359375,0.89697266,-0.6756323,-0.18859112,0.359375,0.89697266,1,-48,0,-3,1,11,3,-1
15.49620008468628,false,0.18652344,0.36035156,0.9038086,-0.6749045,-0.19085066,0.36035156,0.9038086,0,66,3,0,0,4,-4,-3
15.52410900592804,false,0.1772461,0.3701172,0.88964844,-0.6721442,-0.1974992,0.3701172,0.88964844,-1,-1,-7,-9,-1,-3,0,-1
15.52668809890747,false,0.17089844,0.3852539,0.8901367,-0.67128325,-0.19957235,0.3852539,0.8901367,0,0,-3,-5,0,-1,-4,2
15.553909063339233,false,0.16113281,0.3720703,0.88720703,-0.67054385,-0.20091294,0.3720703,0.88720703,0,20,-1,-1,0,1,-2,-2
15.583964109420776,false,0.16894531,0.35009766,0.9086914,-0.66977304,-0.2022014,0.35009766,0.9086914,-3,-13,-2,0,-9,-4,-4,-4
15.586934089660645,false,0.17236328,0.33984375,0.91259766,-0.6692338,-0.20366924,0.33984375,0.91259766,-2,-10,-2,-2,14,1,1,2
15.614742040634155,false,0.17089844,0.32421875,0.8964844,-0.6690403,-0.20543604,0.32421875,0.8964844,0,-11,0,0,-3,2,0,0
15.644116044044495,false,0.22216797,0.32617188,0.89160156,-0.6688618,-0.20812288,0.32617188,0.89160156,-4,-7,-1,2,21,4,0,-2
15.646653056144714,false,0.22070312,0.3330078,0.88134766,-0.6686511,-0.21128789,0.3330078,0.88134766,-4,-8,-11,-8,1,-4,-5,-4
15.674747109413147,false,0.21728516,0.38134766,0.84765625,-0.6684618,-0.21476464,0.38134766,0.84765625,2,2,-5,-8,-13,-5,-2,1
15.704536080360413,false,0.21240234,0.41455078,0.86376953,-0.668963,-0.21678284,0.41455078,0.86376953,-1,-4,3,5,0,-1,-3,-2
15.707287073135376,false,0.18457031,0.42333984,0.91796875,-0.67009825,-0.21691677,0.42333984,0.91796875,0,-1,-1,2,-7,3,3,0
15.735273003578186,false,0.16992188,0.44482422,0.9394531,-0.6715444,-0.21642245,0.44482422,0.9394531,-4,-5,2,2,-3,-1,-1,0
15.76476800441742,false,0.17675781,0.40478516,0.9501953,-0.6734877,-0.21489353,0.40478516,0.9501953,3,2,3,-4,-10,-4,3,0
15.766913056373596,false,0.19921875,0.37402344,0.9370117,-0.6754853,-0.2138508,0.37402344,0.9370117,3,-1,3,1,5,0,0,-1
15.795106053352356,false,0.19726562,0.35839844,0.91748047,-0.67703134,-0.21428442,0.35839844,0.91748047,0,6,-2,1,-15,0,-3,-1
15.824649095535278,false,0.20263672,0.38720703,0.8808594,-0.67812073,-0.21605141,0.38720703,0.8808594,-1,3,2,3,-4,2,1,0
15.827840089797974,false,0.17871094,0.43115234,0.87646484,-0.6787277,-0.2186747,0.43115234,0.87646484,0,-1,-3,-1,35,-1,0,2
15.855318069458008,false,0.15136719,0.47070312,0.8808594,-0.6797209,-0.22008383,0.47070312,0.8808594,0,-3,-4,-9,10,1,2,-1
15.885208010673523,false,0.1484375,0.44189453,0.8486328,-0.6817396,-0.21953602,0.44189453,0.8486328,-3,-1,-1,-4,-13,3,-5,-1
15.887705087661743,false,0.14355469,0.42041016,0.81591797,-0.6845965,-0.21782339,0.42041016,0.81591797,0,4,-19,-26,-38,-3,5,3
15.91514801979065,false,0.14794922,0.42041016,0.81933594,-0.68746614,-0.21629794,0.42041016,0.81933594,3,0,7,13,6,-8,3,1
15.944948077201843,false,0.14453125,0.40234375,0.8774414,-0.69051725,-0.21361238,0.40234375,0.8774414,-3,-4,-1,-1,1,19,0,-2
15.947140097618103,false,0.15478516,0.3779297,0.98535156,-0.69417316,-0.21104719,0.3779297,0.98535156,-1,-1,5,4,6,7,0,-2
15.97499704360962,false,0.1616211,0.3725586,1.0512695,-0.6986294,-0.2089724,0.3725586,1.0512695,1,-9,6,9,5,8,-2,3
16.004223108291626,false,0.20654297,0.37353516,1.0825195,-0.70368844,-0.20817704,0.37353516,1.0825195,6,2,-8,-15,4,-5,-4,3
16.00652003288269,false,0.24414062,0.3857422,1.1230469,-0.7086339,-0.20988649,0.3857422,1.1230469,-4,2,4,13,-6,8,-1,-5
16.034772038459778,false,0.20947266,0.4765625,1.2490234,-0.71168834,-0.21592946,0.4765625,1.2490234,-8,3,3,0,-21,-12,3,-3
16.064139008522034,false,0.17626953,0.55078125,1.2612305,-0.7137083,-0.22441469,0.55078125,1.2612305,5,10,-4,-7,-4,-17,0,6
16.06647801399231,false,0.2602539,0.5644531,1.2290039,-0.7155514,-0.23381758,0.5644531,1.2290039,13,-12,5,3,3,-45,-3,-3
16.094744086265564,false,0.31884766,0.61621094,1.1791992,-0.7164077,-0.24443796,0.61621094,1.1791992,11,-21,-1,-5,16,-43,0,4
16.124107003211975,false,0.3017578,0.6665039,1.1503906,-0.7153559,-0.25596815,0.6665039,1.1503906,-19,12,7,8,-11,-67,3,-6
16.126878023147583,false,0.33007812,0.6567383,1.0830078,-0.7128663,-0.26579905,0.6567383,1.0830078,-33,-17,-22,-13,22,120,-5,2
16.154758095741272,false,0.38867188,0.58154297,0.9692383,-0.7100467,-0.27348456,0.58154297,0.9692383,41,-26,-8,-13,-2,70,4,7
16.18413507938385,false,0.40966797,0.54296875,0.96777344,-0.7052979,-0.28191164,0.54296875,0.96777344,-46,-27,-5,6,-7,-21,-4,-14
16.18679106235504,false,0.38183594,0.5078125,0.94677734,-0.69778734,-0.2906379,0.5078125,0.94677734,108,25,1,1,-5,-20,-5,0
16.21470010280609,false,0.35351562,0.4946289,0.8754883,-0.687709,-0.30058277,0.4946289,0.8754883,-128,-26,11,3,-12,-77,2,-9
16.244731068611145,false,0.36083984,0.45361328,0.7890625,-0.67527086,-0.31041464,0.45361328,0.7890625,-66,46,12,19,-13,21,1,17
16.27354609966278,false,0.4375,0.38085938,0.6694336,-0.6596373,-0.32176238,0.38085938,0.6694336,2,1,17,4,-18,8,-7,-4
16.27528703212738,false,0.47558594,0.27539062,0.5517578,-0.64037335,-0.33434668,0.27539062,0.5517578,63,35,8,-2,15,2,2,2
16.303941011428833,false,0.4868164,0.19042969,0.43164062,-0.6178365,-0.34654507,0.19042969,0.43164062,13,-117,-8,-3,16,30,-6,-2
16.334102034568787,false,0.52734375,0.16894531,0.3149414,-0.5937158,-0.35788956,0.16894531,0.3149414,-3,75,-21,10,14,-13,0,-15
16.336270093917847,false,0.6147461,0.053710938,0.21191406,-0.5691902,-0.36680603,0.053710938,0.21191406,-11,-77,-26,-1,17,-16,2,1
16.364779114723206,true,0.6972656,-0.111328125,0.123046875,-0.5452009,-0.37309,-0.111328125,0.123046875,15,127,-6,-6,-6,-12,-5,-1
16.393216013908386,true,0.7832031,-0.3046875,-0.010253906,-0.52324814,-0.37755898,-0.3046875,-0.010253906,-10,-76,13,4,24,6,3,2
16.39486300945282,true,0.8144531,-0.36376953,-0.0029296875,-0.5038834,-0.380659,-0.36376953,-0.0029296875,-3,32,0,-10,16,0,-1,-1
16.423564076423645,true,0.7944336,-0.34716797,-0.033691406,-0.48819676,-0.38273308,-0.34716797,-0.033691406,8,19,1,3,3,12,4,-5
16.453227043151855,true,0.80078125,-0.31835938,0.026367188,-0.47954357,-0.38195032,-0.31835938,0.026367188,19,103,5,-4,1,7,0,13
16.455124020576477,true,0.7949219,-0.46044922,0.056640625,-0.4763639,-0.37785634,-0.46044922,0.056640625,6,21,3,-1,-23,-12,-5,5
16.483890056610107,true,0.796875,-0.50683594,0.067871094,-0.47766432,-0.3737818,-0.50683594,0.067871094,9,-6,0,-7,-47,-16,-1,-4
16.513614058494568,true,0.8076172,-0.54541016,0.026367188,-0.48418877,-0.36962652,-0.54541016,0.026367188,7,-29,-1,-8,-33,1,-11,2
16.515642046928406,true,0.8251953,-0.55371094,-0.012207031,-0.49743372,-0.36437783,-0.55371094,-0.012207031,-2,-62,-3,-6,2,-12,-6,-15
16.54453706741333,true,0.86083984,-0.51953125,-0.021972656,-0.52165294,-0.35710675,-0.51953125,-0.021972656,-34,15,-13,-3,-3,-5,-7,-44
16.574149012565613,true,0.8276367,-0.4873047,0.06298828,-0.5534244,-0.34506637,-0.4873047,0.06298828,43,47,17,4,-2,10,-2,43
16.576767086982727,true,0.71533203,-0.46728516,0.28710938,-0.58811253,-0.3292112,-0.46728516,0.28710938,33,-14,5,4,9,2,-2,-3
16.603904008865356,true,0.61621094,-0.39794922,0.68408203,-0.62014836,-0.31407177,-0.39794922,0.68408203,82,-35,-4,-7,-12,21,-55,-12
16.63372802734375,true,0.48828125,-0.5234375,1.1953125,-0.6480766,-0.30472234,-0.5234375,1.1953125,101,19,12,-7,-23,-19,26,42
16.635812997817993,true,0.49316406,-0.74316406,1.1298828,-0.6678698,-0.31376395,-0.74316406,1.1298828,-44,12,-2,16,32,-14,-5,8
16.664104104042053,true,0.64208984,-0.31445312,0.029785156,-0.68009794,-0.3475256,-0.31445312,0.029785156,-80,-53,10,-3,-72,-128,-8,-43
16.69371008872986,true,-0.43701172,2.0356445,0.31445312,-0.6769117,-0.39085227,2.0356445,0.31445312,-20,0,4,11,-80,-65,25,51
16.69585609436035,true,-0.9550781,2.7324219,0.8779297,-0.6706718,-0.3894401,2.7324219,0.8779297,-66,-66,-7,-3,98,127,-37,-24
16.724130034446716,true,-0.4584961,1.3164062,1.1796875,-0.69982076,-0.34405106,1.3164062,1.1796875,62,98,-3,-10,-34,-120,110,0
16.753719091415405,true,0.6220703,0.5859375,1.1035156,-0.72995436,-0.30791134,0.5859375,1.1035156,-22,-128,-31,-8,24,-1,78,-11
16.755524039268494,true,0.78808594,0.35351562,0.9765625,-0.73721343,-0.2863652,0.35351562,0.9765625,-38,-6,-9,-4,31,54,-53,-14
16.784988045692444,true,0.58203125,-0.005859375,1.0375977,-0.7382887,-0.28025308,-0.005859375,1.0375977,-27,-45,-8,3,28,27,-41,8
16.814168095588684,true,0.4423828,0.27929688,0.95751953,-0.7343823,-0.294351,0.27929688,0.95751953,-2,42,-1,-5,13,10,-14,-12
16.816487073898315,true,0.41308594,0.54589844,0.81396484,-0.72878736,-0.30735895,0.54589844,0.81396484,4,-29,-1,0,-9,-3,-19,-17
16.844513058662415,true,0.44335938,0.5605469,0.80126953,-0.7275595,-0.31217742,0.5605469,0.80126953,13,-32,3,-7,-4,-5,-5,-7
16.873691082000732,true,0.42138672,0.50927734,0.84277344,-0.72958314,-0.3099233,0.50927734,0.84277344,-9,43,4,6,2,-1,7,8
16.8766371011734,true,0.359375,0.4033203,0.88623047,-0.7318406,-0.30436903,0.4033203,0.88623047,-29,12,-11,-12,3,8,1,0
16.904229044914246,true,0.29541016,0.3935547,0.91552734,-0.733008,-0.29991686,0.3935547,0.91552734,-19,8,2,7,9,-1,1,7
16.93383502960205,true,0.31054688,0.3798828,0.88183594,-0.73305947,-0.29802093,0.3798828,0.88183594,0,7,2,5,4,0,2,4
16.93582808971405,true,0.30419922,0.3955078,0.9013672,-0.7321997,-0.29795775,0.3955078,0.9013672,11,4,1,-1,18,10,3,12
16.964126110076904,true,0.24658203,0.4711914,0.91259766,-0.73096734,-0.29984492,0.4711914,0.91259766,7,11,-3,3,5,-2,1,3
17.024214029312134,true,0.17871094,0.5541992,0.95458984,-0.72889125,-0.3039946,0.5541992,0.95458984,-8,-3,4,17,-1,13,-3,-3
17.027241110801697,true,0.12988281,0.5966797,0.9746094,-0.7251664,-0.30930343,0.5966797,0.9746094,7,22,13,-2,10,-3,-1,-3
17.03017807006836,true,0.16748047,0.6176758,1.0039062,-0.7206722,-0.31480584,0.6176758,1.0039062,-2,0,0,1,-11,-1,-2,-2
17.054092049598694,true,0.27392578,0.5517578,0.94433594,-0.7167005,-0.32005256,0.5517578,0.94433594,-2,6,-11,-10,5,4,-1,3
17.055889010429382,true,0.36035156,0.42773438,0.8720703,-0.71162057,-0.3254779,0.42773438,0.8720703,-1,6,1,-9,-1,-3,-3,-1
17.08423101902008,false,0.4765625,0.31933594,0.734375,-0.70431167,-0.3329307,0.31933594,0.734375,-11,-3,-11,-7,-3,-7,-1,-3
17.11393904685974,false,0.5385742,0.30029297,0.6821289,-0.6964253,-0.3412246,0.30029297,0.6821289,6,-15,-2,-13,1,-4,1,0
17.115575075149536,false,0.5463867,0.31152344,0.6640625,-0.69028926,-0.34715873,0.31152344,0.6640625,-3,4,12,9,0,-3,-3,-4
17.144259095191956,false,0.5708008,0.27441406,0.6425781,-0.6869113,-0.34879592,0.27441406,0.6425781,11,0,0,7,6,-1,2,2
17.173609018325806,false,0.6386719,0.16015625,0.58691406,-0.6861293,-0.3463604,0.16015625,0.58691406,-3,-6,-4,-2,-5,0,-1,0
17.175648093223572,false,0.67578125,0.06982422,0.5800781,-0.6859605,-0.34349903,0.06982422,0.5800781,-10,-5,1,1,1,-1,-2,-2
17.204609036445618,false,0.68603516,0.053710938,0.5517578,-0.68507487,-0.34293413,0.053710938,0.5517578,-3,6,-5,-6,-4,-3,-1,-3
17.23381805419922,false,0.6567383,0.13720703,0.5336914,-0.68386364,-0.34452567,0.13720703,0.5336914,5,9,-1,-4,-6,0,2,7
17.237619042396545,false,0.62158203,0.20996094,0.5493164,-0.68403655,-0.34470364,0.20996094,0.5493164,1,-10,7,-1,-7,-4,1,-1
17.26385200023651,false,0.61621094,0.23876953,0.54833984,-0.6867982,-0.3420869,0.23876953,0.54833984,0,-5,-3,-7,0,0,-2,-2
17.29325807094574,false,0.6401367,0.22314453,0.55371094,-0.6917292,-0.33677092,0.22314453,0.55371094,4,0,-7,-2,-8,5,9,1
17.295018076896667,false,0.65283203,0.20605469,0.5600586,-0.697789,-0.33067617,0.20605469,0.5600586,-5,-1,-2,8,0,1,-4,-2
17.324127078056335,false,0.6381836,0.22363281,0.5727539,-0.7042405,-0.32499182,0.22363281,0.5727539,2,-1,-4,-9,4,-2,1,-1
17.353978037834167,false,0.6308594,0.2944336,0.59716797,-0.71061105,-0.32060808,0.2944336,0.59716797,-2,1,5,4,10,-3,-1,1
17.355725049972534,false,0.62890625,0.32714844,0.6020508,-0.7174845,-0.31571513,0.32714844,0.6020508,1,6,1,2,-4,0,-1,0
17.384075045585632,false,0.63623047,0.3178711,0.6176758,-0.72499424,-0.3101015,0.3178711,0.6176758,-2,0,0,9,0,0,-3,-3
17.41382908821106,false,0.64208984,0.30322266,0.6220703,-0.73201954,-0.30485556,0.30322266,0.6220703,0,-1,4,-3,3,-4,-3,-2
17.415709018707275,false,0.6352539,0.27246094,0.61572266,-0.73867434,-0.29893637,0.27246094,0.61572266,-1,-4,-8,-11,-2,2,0,-1
17.444462060928345,false,0.59814453,0.28076172,0.6411133,-0.74490476,-0.2932624,0.28076172,0.6411133,-4,-1,6,-3,1,0,-2,-2
17.474370002746582,false,0.5332031,0.3203125,0.69140625,-0.7506899,-0.28770342,0.3203125,0.69140625,-3,-2,-3,1,-6,-5,-1,-1
17.476168036460876,false,0.4345703,0.36621094,0.75097656,-0.7565339,-0.27951962,0.36621094,0.75097656,1,0,-6,-3,-8,-5,-2,0
17.50441300868988,false,0.34228516,0.32714844,0.76123047,-0.7625249,-0.26853767,0.32714844,0.76123047,23,4,-4,11,10,6,-2,10
17.534221053123474,false,0.33007812,0.27978516,0.72753906,-0.76826614,-0.2562718,0.27978516,0.72753906,23,-4,2,-20,7,1,1,5
17.535778045654297,false,0.30517578,0.3149414,0.7661133,-0.772327,-0.24578479,0.3149414,0.7661133,-8,0,0,5,-3,-3,1,-1
17.56436002254486,false,0.1928711,0.4267578,0.83496094,-0.77472615,-0.2366778,0.4267578,0.83496094,-7,-23,2,1,-1,-11,-2,-1
17.594045042991638,false,0.083496094,0.57910156,0.86083984,-0.7760347,-0.22661556,0.57910156,0.86083984,-16,15,4,2,0,7,1,-8
17.59662699699402,false,0.04345703,0.48583984,0.82128906,-0.77817625,-0.21148084,0.48583984,0.82128906,-8,65,-8,-3,-9,19,-4,-10
17.624505043029785,false,0.061523438,0.33544922,0.8383789,-0.7797018,-0.19603932,0.33544922,0.8383789,2,-25,4,-6,-1,-8,3,3
17.654561042785645,false,-0.0048828125,0.41015625,0.96435547,-0.7784818,-0.18798307,0.41015625,0.96435547,-7,-5,-4,6,-3,-8,-5,-6
17.65679907798767,false,-0.11376953,0.6430664,1.0166016,-0.776025,-0.18401222,0.6430664,1.0166016,-3,-13,-4,0,-9,-28,-1,0
17.68404710292816,false,-0.15771484,0.6352539,0.97021484,-0.7750347,-0.17601387,0.6352539,0.97021484,5,-14,-1,1,5,30,0,2
17.713973999023438,false,-0.12451172,0.46142578,0.9160156,-0.77694046,-0.16197959,0.46142578,0.9160156,9,-11,1,8,1,-4,0,5
17.71618402004242,false,-0.09277344,0.42236328,1.003418,-0.77885765,-0.15246348,0.42236328,1.003418,-2,-3,-4,-7,-7,-8,0,0
17.744089007377625,false,-0.24853516,0.5991211,1.1420898,-0.77894163,-0.15184571,0.5991211,1.1420898,-5,0,-5,-2,-7,-6,-2,-2
17.774038076400757,false,-0.35351562,0.69873047,1.0776367,-0.77956337,-0.15032214,0.69873047,1.0776367,-10,3,-1,1,-5,19,-1,-4
17.776756048202515,false,-0.27685547,0.5332031,0.953125,-0.78399014,-0.14079599,0.5332031,0.953125,11,-35,0,-3,3,-1,-2,-2
17.80440402030945,false,-0.15332031,0.3383789,0.89941406,-0.79077744,-0.12877521,0.3383789,0.89941406,2,2,-3,-8,11,-12,0,-1
17.834099054336548,false,-0.18847656,0.4169922,0.9189453,-0.79567784,-0.12682508,0.4169922,0.9189453,-6,16,-4,8,-2,-5,0,-4
17.83636701107025,false,-0.29638672,0.5341797,0.8305664,-0.79819703,-0.1305508,0.5341797,0.8305664,-5,4,-1,-5,-1,-5,1,-1
17.864370107650757,false,-0.31396484,0.5488281,0.7861328,-0.8003806,-0.13030446,0.5488281,0.7861328,-1,4,-1,3,6,38,0,-2
17.894585013389587,false,-0.27929688,0.46875,0.8520508,-0.803443,-0.12530147,0.46875,0.8520508,-3,7,1,1,-2,-11,-2,0
17.89697003364563,false,-0.29736328,0.4584961,0.86083984,-0.8063563,-0.1220032,0.4584961,0.86083984,1,-3,0,-2,0,-10,2,-1
17.95370101928711,false,-0.3725586,0.58447266,0.9194336,-0.80830663,-0.12194176,0.58447266,0.9194336,0,5,-2,-1,-1,-4,-2,-1
17.984848022460938,false,-0.421875,0.66552734,0.94433594,-0.81003356,-0.12023555,0.66552734,0.94433594,-3,-3,-2,-1,-11,-3,-2,-1
18.014058113098145,false,-0.36914062,0.3623047,0.7890625,-0.8203964,-0.10717275,0.3623047,0.7890625,-1,4,0,0,4,4,-2,0
18.016266107559204,false,-0.4091797,0.43017578,0.73876953,-0.82191354,-0.1113828,0.43017578,0.73876953,1,6,0,-2,0,1,1,1
18.044151067733765,false,-0.44726562,0.53027344,0.76171875,-0.823072,-0.115593836,0.53027344,0.76171875,0,3,-5,-1,5,-4,0,-2
18.07400107383728,false,-0.48095703,0.56933594,0.76464844,-0.8245853,-0.116324455,0.56933594,0.76464844,-1,2,1,-1,-3,-1,-2,-1
18.076617002487183,false,-0.47216797,0.51464844,0.74658203,-0.82698685,-0.11266551,0.51464844,0.74658203,0,-2,-1,0,2,1,0,-1
18.104056000709534,false,-0.40966797,0.42529297,0.75683594,-0.829733,-0.107416704,0.42529297,0.75683594,-1,-2,-1,-1,-7,-3,1,-1
18.13407003879547,false,-0.36767578,0.36376953,0.7519531,-0.83211315,-0.10375476,0.36376953,0.7519531,0,2,-2,1,3,0,-3,0
18.136295080184937,false,-0.3491211,0.38330078,0.7709961,-0.8337957,-0.103507355,0.38330078,0.7709961,0,4,0,-2,2,-1,0,0
18.164030075073242,false,-0.3696289,0.45361328,0.78759766,-0.83478034,-0.10503414,0.45361328,0.78759766,-2,0,-1,-2,-2,-3,-2,-1
18.19412910938263,false,-0.3959961,0.4765625,0.7871094,-0.83560294,-0.10485471,0.4765625,0.7871094,-2,-3,-1,0,2,-1,2,0
18.196429014205933,false,-0.37890625,0.43310547,0.796875,-0.83671916,-0.10185881,0.43310547,0.796875,1,-1,-1,-1,-4,-3,-1,-1
18.224592089653015,false,-0.36376953,0.37548828,0.8129883,-0.83771294,-0.09819905,0.37548828,0.8129883,-1,7,-1,-1,6,-2,0,-1
18.253793001174927,false,-0.3857422,0.37548828,0.8330078,-0.83798474,-0.09533373,0.37548828,0.8330078,-1,-4,-2,-1,-6,-1,-1,1
18.255648016929626,false,-0.40576172,0.3798828,0.85546875,-0.8376541,-0.09295061,0.3798828,0.85546875,-3,0,7,16,3,-2,-1,-2
18.284383058547974,false,-0.3930664,0.36376953,0.84277344,-0.8370092,-0.08935259,0.36376953,0.84277344,0,4,0,3,1,2,-1,0
18.314711093902588,false,-0.34277344,0.35302734,0.8564453,-0.83625895,-0.08550568,0.35302734,0.8564453,0,-4,-4,-8,-3,0,-1,-1
18.317026019096375,false,-0.3461914,0.31445312,0.85009766,-0.83523333,-0.08099048,0.31445312,0.85009766,0,-4,-3,-6,-14,0,0,-1
18.344409108161926,false,-0.3779297,0.3203125,0.83935547,-0.8338032,-0.077265024,0.3203125,0.83935547,2,0,-2,-6,-4,-1,-1,-1
18.374587059020996,false,-0.38085938,0.3330078,0.8496094,-0.8318648,-0.07397066,0.3330078,0.8496094,-4,-14,-1,-1,-11,-2,-1,-1
18.377196073532104,false,-0.36816406,0.33935547,0.86816406,-0.82953405,-0.07061293,0.33935547,0.86816406,0,6,-1,-1,4,0,-1,2
18.40393102169037,false,-0.36767578,0.32617188,0.87109375,-0.82683796,-0.06682813,0.32617188,0.87109375,-1,-11,0,0,1,-1,-2,-1
18.434255003929138,false,-0.38476562,0.3310547,0.8847656,-0.82385504,-0.06328896,0.3310547,0.8847656,-3,2,-3,0,-1,2,-1,0
18.436179041862488,false,-0.3798828,0.34765625,0.8769531,-0.82061785,-0.05993208,0.34765625,0.8769531,0,6,-2,-4,2,1,-1,-2
18.464123010635376,false,-0.37158203,0.36328125,0.87353516,-0.8173986,-0.056393366,0.36328125,0.87353516,0,-5,0,0,-6,-2,-2,-1
18.494267106056213,false,-0.37060547,0.35888672,0.8803711,-0.81407857,-0.05309606,0.35888672,0.8803711,-2,-4,-1,0,0,1,-1,-2
18.496586084365845,false,-0.3725586,0.35888672,0.8642578,-0.81057465,-0.050535038,0.35888672,0.8642578,-3,2,0,-2,0,-4,-1,-1
18.52406108379364,false,-0.3623047,0.37353516,0.85839844,-0.80684507,-0.049069848,0.37353516,0.85839844,-1,0,0,0,1,-4,-1,-1
18.554075002670288,false,-0.3647461,0.40039062,0.828125,-0.80310506,-0.047909223,0.40039062,0.828125,1,6,-2,-2,0,2,0,0
18.556223034858704,false,-0.3564453,0.42529297,0.8183594,-0.79923743,-0.04705705,0.42529297,0.8183594,-1,-2,0,-2,-1,0,0,-1
18.584419012069702,false,-0.36816406,0.4248047,0.8076172,-0.7950664,-0.04589621,0.4248047,0.8076172,0,1,-1,-1,3,0,0,0
18.614527106285095,false,-0.36767578,0.42822266,0.80615234,-0.79076844,-0.044311356,0.42822266,0.80615234,2,8,-1,-1,0,1,0,-1
18.6166570186615,false,-0.4013672,0.4091797,0.80615234,-0.7864697,-0.042478886,0.4091797,0.80615234,0,5,-1,-1,7,0,-2,-1
18.644047021865845,false,-0.4404297,0.39941406,0.77978516,-0.7826837,-0.039488174,0.39941406,0.77978516,0,-1,-2,1,0,1,0,0
18.674193024635315,false,-0.4111328,0.39697266,0.77783203,-0.7792355,-0.036618207,0.39697266,0.77783203,-1,2,-1,-2,-1,-3,-1,0
18.676708102226257,false,-0.39941406,0.39257812,0.8017578,-0.7754756,-0.03430012,0.39257812,0.8017578,-2,3,-2,1,1,-2,-3,-1
18.703965067863464,false,-0.43115234,0.3803711,0.828125,-0.77146196,-0.03198149,0.3803711,0.828125,1,-6,0,0,-6,-2,0,-2
18.73400104045868,false,-0.46142578,0.37402344,0.8574219,-0.7679685,-0.029722692,0.37402344,0.8574219,-2,-13,-1,-1,-6,-4,0,0
18.736276030540466,false,-0.4711914,0.3876953,0.890625,-0.76520514,-0.027952142,0.3876953,0.890625,-1,-3,-2,0,-6,1,-1,0
18.764109015464783,false,-0.48486328,0.38427734,0.87939453,-0.7631971,-0.025694203,0.38427734,0.87939453,1,-1,-1,-3,3,1,-1,-1
18.794130086898804,false,-0.44726562,0.35986328,0.8798828,-0.7618698,-0.023802709,0.35986328,0.8798828,-2,-3,-1,0,-5,1,-1,-1
18.796386003494263,false,-0.41503906,0.32763672,0.87939453,-0.7609935,-0.022459347,0.32763672,0.87939453,-1,1,-2,-1,3,-3,-1,-2
18.824685096740723,false,-0.39990234,0.31396484,0.87646484,-0.7604684,-0.022460062,0.31396484,0.87646484,1,2,-1,1,0,-1,-2,0
18.854400038719177,false,-0.3857422,0.3251953,0.87597656,-0.76018274,-0.023498222,0.3251953,0.87597656,-1,0,-1,-3,0,0,1,-1
18.856999039649963,false,-0.39111328,0.3359375,0.87939453,-0.76028854,-0.024779413,0.3359375,0.87939453,1,-1,0,0,-2,2,0,0
18.884371042251587,false,-0.38964844,0.3334961,0.88623047,-0.7607471,-0.025999058,0.3334961,0.88623047,0,3,-1,-2,-1,-1,-1,0
18.914939999580383,false,-0.3671875,0.30859375,0.87597656,-0.76161283,-0.026670793,0.30859375,0.87597656,-2,0,-1,0,1,0,0,0
18.916829109191895,false,-0.3173828,0.29101562,0.8647461,-0.7628413,-0.027403452,0.29101562,0.8647461,-2,-2,-1,1,-2,0,-2,0
18.94450008869171,false,-0.28515625,0.27392578,0.8574219,-0.7641688,-0.02813528,0.27392578,0.8574219,0,-1,-1,0,1,2,-1,0
18.974321007728577,false,-0.234375,0.26513672,0.85009766,-0.7653817,-0.028745297,0.26513672,0.85009766,-1,3,-1,1,-2,0,-3,-2
18.976672053337097,false,-0.1977539,0.30908203,0.87597656,-0.7661837,-0.030149333,0.30908203,0.87597656,-1,5,0,-1,1,1,0,-1
19.00432801246643,false,-0.19726562,0.32763672,0.9140625,-0.7663855,-0.031065557,0.32763672,0.9140625,-1,1,-2,0,-2,-5,0,-2
19.034478068351746,false,-0.1850586,0.35986328,0.99658203,-0.76627153,-0.031981386,0.35986328,0.99658203,0,0,0,-1,1,2,-1,-1
19.037171006202698,false,-0.21777344,0.37890625,1.0488281,-0.7656878,-0.03259025,0.37890625,1.0488281,-3,1,-1,1,2,0,-1,0
19.064120054244995,false,-0.19238281,0.34033203,1.03125,-0.7647926,-0.03216389,0.34033203,1.03125,0,-2,-1,-2,-2,-3,-1,0
19.094210028648376,false,-0.1430664,0.29248047,0.99121094,-0.76344234,-0.03167532,0.29248047,0.99121094,0,-2,-1,0,-8,-2,-2,1
19.125278115272522,false,-0.14208984,0.25634766,0.9448242,-0.7614809,-0.031491876,0.25634766,0.9448242,0,-7,1,-1,-9,0,-1,-1
19.12715709209442,false,-0.13330078,0.2446289,0.90966797,-0.759127,-0.031431936,0.2446289,0.90966797,-1,-4,-1,-1,-7,-1,0,-1
19.154162049293518,false,-0.15917969,0.22949219,0.8984375,-0.7566321,-0.030821908,0.22949219,0.8984375,-1,1,0,-2,1,-5,-1,-2
19.156261086463928,false,-0.20410156,0.24658203,0.9140625,-0.75374484,-0.03069908,0.24658203,0.9140625,0,0,-1,-1,7,1,-3,-1
19.18400502204895,false,-0.25341797,0.2685547,0.90283203,-0.7508823,-0.029966936,0.2685547,0.90283203,0,-2,-2,0,-3,-1,1,-2
19.214166045188904,false,-0.28027344,0.26220703,0.8745117,-0.74832624,-0.028014172,0.26220703,0.8745117,-2,-1,-1,0,3,0,1,-1
19.216305017471313,false,-0.31689453,0.2397461,0.86816406,-0.74618524,-0.025999911,0.2397461,0.86816406,-1,4,-2,0,-4,-2,2,1
19.244770050048828,false,-0.3149414,0.25927734,0.8564453,-0.74435735,-0.025023492,0.25927734,0.8564453,0,2,-3,-4,4,9,6,-1
19.274026036262512,false,-0.2211914,0.2866211,0.8310547,-0.7424898,-0.02496123,0.2866211,0.8310547,3,0,4,5,0,-4,21,3
19.276222109794617,false,-0.37060547,0.2919922,0.8334961,-0.7415471,-0.022398995,0.2919922,0.8334961,-4,0,0,-3,2,-8,8,-1
19.304428100585938,false,-0.38134766,0.29345703,0.85009766,-0.7407325,-0.020384332,0.29345703,0.85009766,0,-1,-4,1,-4,4,12,-3
19.33439302444458,false,-0.3955078,0.3095703,0.8642578,-0.7401452,-0.020140836,0.3095703,0.8642578,-3,-3,-1,-2,2,-3,100,-3
19.33678901195526,false,-0.4140625,0.36669922,0.86621094,-0.7393561,-0.022277115,0.36669922,0.86621094,1,10,-3,-1,-2,2,-128,0
19.364512085914612,false,-0.41845703,0.43017578,0.87109375,-0.73822105,-0.026487097,0.43017578,0.87109375,1,5,-5,-7,-1,4,-91,-1
19.394703030586243,false,-0.44580078,0.4897461,0.91308594,-0.7368342,-0.030820945,0.4897461,0.91308594,2,4,-1,1,4,18,-47,1
19.397855043411255,false,-0.4560547,0.52246094,0.94189453,-0.7355657,-0.033629,0.52246094,0.94189453,-1,-2,1,1,2,-2,31,0
19.424753069877625,false,-0.43017578,0.4951172,0.96728516,-0.7352533,-0.034483116,0.4951172,0.96728516,-2,-2,2,0,3,-9,56,-2
19.454243063926697,false,-0.37304688,0.41503906,0.9790039,-0.73554695,-0.034482576,0.41503906,0.9790039,-3,-8,-3,5,-6,-5,32,-2
19.45668601989746,false,-0.31835938,0.3310547,1.0078125,-0.73618084,-0.035277113,0.3310547,1.0078125,1,-11,2,1,-4,-4,10,3
19.484844088554382,false,-0.2890625,0.328125,1.0737305,-0.73678195,-0.038694482,0.328125,1.0737305,-3,-3,1,2,-1,-4,6,1
19.51416802406311,false,-0.3383789,0.44921875,1.1391602,-0.7368935,-0.04522429,0.44921875,1.1391602,-4,-12,1,11,-6,2,-1,-4
19.516643047332764,false,-0.38232422,0.48876953,1.1152344,-0.73719996,-0.05144959,0.48876953,1.1152344,-1,8,-4,-7,-2,-3,-3,-1
19.544925093650818,false,-0.32080078,0.515625,1.1621094,-0.7375178,-0.05785889,0.515625,1.1621094,1,2,0,-7,4,-3,1,3
19.57416009902954,false,-0.34228516,0.49658203,1.2338867,-0.73757213,-0.06316815,0.49658203,1.2338867,1,8,4,-12,-9,0,-3,1
19.57685101032257,false,-0.38183594,0.44677734,1.3461914,-0.73817897,-0.070308566,0.44677734,1.3461914,2,31,0,-6,9,1,1,-1
19.605114102363586,false,-0.34716797,0.42822266,1.2954102,-0.7388178,-0.08166363,0.42822266,1.2954102,-2,-27,-5,-10,1,0,1,-5
19.63441801071167,false,-0.25146484,0.43310547,1.2250977,-0.7396909,-0.0983203,0.43310547,1.2250977,-4,-1,2,3,-1,-3,-4,-4
19.6373530626297,false,-0.19433594,0.4711914,1.1606445,-0.73910683,-0.11852564,0.4711914,1.1606445,-1,2,-5,-1,-2,2,2,0
19.66463804244995,false,-0.1328125,0.5083008,1.0976562,-0.7367114,-0.139457,0.5083008,1.0976562,-6,11,9,15,-9,-2,3,-5
19.694080114364624,false,-0.067871094,0.5239258,1.0068359,-0.7334892,-0.1597222,0.5239258,1.0068359,0,-10,-7,-9,7,6,-3,1
19.696723103523254,false,-0.00390625,0.4345703,0.9350586,-0.7294397,-0.17711127,0.4345703,0.9350586,6,-5,-6,-3,-21,-2,-4,0
19.72477900981903,false,0.08544922,0.3334961,0.89208984,-0.72373986,-0.19384363,0.3334961,0.89208984,0,-7,-1,-7,-2,-4,-2,4
19.7541720867157,false,0.17138672,0.27734375,0.8574219,-0.7160794,-0.21000846,0.27734375,0.8574219,7,-6,-11,-1,-7,1,4,6
19.75665807723999,false,0.26708984,0.29003906,0.8876953,-0.70608574,-0.2258205,0.29003906,0.8876953,-1,-20,0,-1,-2,-7,-4,-1
19.78471302986145,false,0.33544922,0.3100586,0.9213867,-0.693593,-0.23931523,0.3100586,0.9213867,-22,19,7,19,24,-4,-7,-27
19.814999103546143,true,0.3774414,0.32617188,0.91064453,-0.6797776,-0.25011033,0.32617188,0.91064453,1,-10,-15,-11,-18,-5,0,7
19.817724108695984,true,0.46142578,0.38476562,0.84375,-0.6649568,-0.25902492,0.38476562,0.84375,31,-3,-16,-11,-21,-7,-1,9
19.844436049461365,true,0.47607422,0.32861328,0.68066406,-0.64773893,-0.2670176,0.32861328,0.68066406,13,-8,2,-3,-19,-2,0,9
19.87370204925537,true,0.5019531,0.22363281,0.49072266,-0.626987,-0.27586693,0.22363281,0.49072266,-43,14,42,7,-8,-3,-2,-11
19.875673055648804,true,0.5654297,0.018554688,0.27783203,-0.6028767,-0.28526482,0.018554688,0.27783203,-21,-124,2,7,-46,1,14,-1
19.90439808368683,true,0.54541016,-0.1015625,0.14355469,-0.5752226,-0.29508767,-0.1015625,0.14355469,0,91,-9,-19,48,10,-9,-6
19.93374800682068,true,0.5678711,-0.18457031,0.0146484375,-0.54842037,-0.3010026,-0.18457031,0.0146484375,2,124,-3,4,-1,0,8,-4
19.935957074165344,true,0.60791016,-0.23291016,-0.048339844,-0.5287331,-0.3013223,-0.23291016,-0.048339844,0,16,-9,-1,0,-3,-27,-8
19.96465003490448,true,0.58447266,-0.2055664,-0.055664062,-0.51565427,-0.2996031,-0.2055664,-0.055664062,5,-20,-11,-3,13,3,-2,21
19.993667006492615,true,0.52685547,-0.41455078,-0.10449219,-0.51104915,-0.29174906,-0.41455078,-0.10449219,8,-28,-1,-9,-4,-1,-7,-14
19.996034026145935,true,0.52490234,-0.7207031,-0.030273438,-0.51249856,-0.28252423,-0.7207031,-0.030273438,4,-17,10,10,-10,3,7,-2
20.024805068969727,true,0.5786133,-0.90527344,-0.18896484,-0.51683915,-0.27447164,-0.90527344,-0.18896484,2,18,0,1,15,-11,0,4
20.054256081581116,true,0.7470703,-1.0068359,-0.42578125,-0.528979,-0.26982996,-1.0068359,-0.42578125,6,-1,-6,0,6,-2,-31,13
20.056979060173035,true,0.86572266,-1.0361328,-0.4921875,-0.5584586,-0.26586294,-1.0361328,-0.4921875,24,-6,16,8,9,34,52,24
20.08466100692749,true,0.7583008,-1.0517578,-0.40527344,-0.6006341,-0.25652525,-1.0517578,-0.40527344,73,23,-7,-6,-1,27,99,35
20.114699006080627,true,0.49414062,-1.0102539,0.080566406,-0.64901966,-0.24040705,-1.0102539,0.080566406,-70,-53,6,7,35,-10,57,22
20.11641502380371,true,0.5439453,-1.0029297,0.60498047,-0.6973492,-0.22471905,-1.0029297,0.60498047,31,39,2,-19,17,10,-16,88
20.14438807964325,true,0.7416992,-1.2348633,1.2495117,-0.7430874,-0.21959989,-1.2348633,1.2495117,1,-128,-10,-8,0,-39,-59,-24
20.173705101013184,true,0.47460938,-1.0014648,0.5854492,-0.77598065,-0.24456146,-1.0014648,0.5854492,101,127,-41,-31,-1,-18,-20,-64
20.175689101219177,true,-0.4345703,1.3706055,0.23876953,-0.78567815,-0.3208506,1.3706055,0.23876953,-128,60,18,25,45,-81,-52,-81
20.204408049583435,true,-2.7270508,4.4492188,0.9223633,-0.757525,-0.38327885,4.4492188,0.9223633,-48,-128,-10,-49,-15,11,82,-20
20.236313104629517,true,-2.0288086,2.6191406,1.5693359,-0.77112126,-0.33871967,2.6191406,1.5693359,127,127,-6,58,-7,124,-6,95
20.236788034439087,true,-0.62402344,1.7788086,1.2436523,-0.7999505,-0.29869214,1.7788086,1.2436523,-92,-128,17,-16,13,-49,-124,-128
20.26374900341034,true,1.4399414,0.6147461,0.86376953,-0.8254379,-0.26133272,0.6147461,0.86376953,100,87,1,12,-28,-41,-12,102
20.293552041053772,true,1.4780273,-0.05859375,0.86035156,-0.82502496,-0.23741286,-0.05859375,0.86035156,-82,36,-13,5,-5,-53,21,-14
20.295512080192566,true,0.8408203,-0.1796875,1.0083008,-0.8230806,-0.24248102,-0.1796875,1.0083008,-1,-92,3,5,-32,5,9,11
20.324140071868896,true,0.4633789,0.33398438,0.76123047,-0.81875926,-0.26140484,0.33398438,0.76123047,-7,76,0,1,-18,-8,-28,-10
20.353739023208618,true,0.2446289,0.42626953,0.7597656,-0.8134503,-0.27098733,0.42626953,0.7597656,-11,29,1,-15,-9,10,-28,-29
20.355581045150757,true,0.40039062,0.4951172,0.77783203,-0.8136255,-0.27342603,0.4951172,0.77783203,-28,-86,-1,-1,-2,29,-7,-2
20.38417100906372,true,0.3544922,0.46923828,0.74560547,-0.81512994,-0.2690246,0.46923828,0.74560547,-7,-5,4,5,4,8,-5,-13
20.414061069488525,true,0.20410156,0.31347656,0.7685547,-0.81624496,-0.26048553,0.31347656,0.7685547,-1,4,-3,-2,0,-3,-5,4
20.415760040283203,true,0.14697266,0.26464844,0.7314453,-0.81679064,-0.25413707,0.26464844,0.7314453,-14,-20,-2,-1,-11,-2,-8,-5
20.44459903240204,true,0.14355469,0.28759766,0.6977539,-0.81595206,-0.2506631,0.28759766,0.6977539,-80,-11,-2,-1,-7,6,-4,-7
20.474266052246094,false,0.17138672,0.33740234,0.6694336,-0.8143368,-0.24925064,0.33740234,0.6694336,56,-12,0,-1,1,7,-1,3
20.477111101150513,false,0.18066406,0.36767578,0.6645508,-0.81252015,-0.24754614,0.36767578,0.6645508,7,-4,5,7,-8,-1,-4,-3
20.50431203842163,false,0.17675781,0.3359375,0.7138672,-0.811181,-0.24284774,0.3359375,0.7138672,24,26,-8,-10,-9,1,0,3
20.533695101737976,false,0.19824219,0.29492188,0.7265625,-0.81068534,-0.2370475,0.29492188,0.7265625,-15,-55,3,4,-6,-5,-1,-4
20.535768032073975,false,0.24707031,0.32226562,0.7216797,-0.8097694,-0.23295823,0.32226562,0.7216797,-1,29,1,-2,-3,-2,-2,-2
20.564542055130005,false,0.23291016,0.35888672,0.7050781,-0.8078595,-0.23028512,0.35888672,0.7050781,-3,-10,0,0,-3,5,1,0
20.59392011165619,false,0.2133789,0.40966797,0.6821289,-0.80494785,-0.22923529,0.40966797,0.6821289,0,15,0,3,-8,7,-1,-1
20.59557604789734,false,0.18017578,0.34423828,0.7373047,-0.8016574,-0.22441524,0.34423828,0.7373047,6,-9,-3,-5,-8,1,3,4
20.62431502342224,false,0.1875,0.27978516,0.8305664,-0.79891455,-0.21635999,0.27978516,0.8305664,-1,-6,-6,-8,6,-5,0,-1
20.65391206741333,false,0.2553711,0.30322266,0.828125,-0.7964894,-0.20934549,0.30322266,0.828125,-4,-43,4,5,-3,-3,-2,-5
20.655627012252808,false,0.29296875,0.2861328,0.8105469,-0.7937295,-0.20079738,0.2861328,0.8105469,3,33,6,3,1,-3,-1,4
20.684279084205627,false,0.22314453,0.23144531,0.859375,-0.7907282,-0.1902972,0.23144531,0.859375,-2,21,-4,-3,4,-7,-2,0
20.714245080947876,false,0.18554688,0.16455078,0.93066406,-0.78903896,-0.17675254,0.16455078,0.93066406,-21,-52,-6,-3,-7,-1,-1,-7
20.715577006340027,false,0.25634766,0.20361328,0.94970703,-0.7888952,-0.16240524,0.20361328,0.94970703,4,46,2,-5,1,1,-1,-2
20.744643092155457,false,0.2919922,0.1538086,0.9658203,-0.7882906,-0.14751458,0.1538086,0.9658203,-2,12,0,2,1,-1,-1,-2
20.77551507949829,false,0.2211914,0.044921875,1.0175781,-0.786753,-0.13127808,0.044921875,1.0175781,1,5,-2,-2,1,3,-1,2
20.77739906311035,false,0.1640625,0.053710938,1.0493164,-0.7863498,-0.11754965,0.053710938,1.0493164,-1,-24,1,2,0,0,0,-4
20.804217100143433,false,0.1381836,0.21728516,1.0439453,-0.78694314,-0.10723275,0.21728516,1.0439453,2,-6,-3,-9,-4,-3,-1,1
20.835249066352844,false,0.076171875,0.27441406,0.9995117,-0.787386,-0.09423487,0.27441406,0.9995117,-3,4,-8,-10,-2,-2,-7,-5
20.836379051208496,false,0.011230469,0.21728516,1.1289062,-0.78784996,-0.07543439,0.21728516,1.1289062,-8,5,2,6,-4,3,3,0
20.864758014678955,false,-0.037597656,0.22460938,1.2514648,-0.7893921,-0.051877476,0.22460938,1.2514648,10,-4,1,2,4,-3,0,0
20.893782019615173,false,-0.041015625,0.23291016,1.2705078,-0.791421,-0.026305424,0.23291016,1.2705078,-1,-17,2,0,-2,-16,1,2
20.895580053329468,false,-0.048339844,0.092285156,1.1342773,-0.79205865,0.0014647408,0.092285156,1.1342773,0,9,0,1,3,37,-1,1
20.92413306236267,false,-0.036132812,-0.07910156,1.065918,-0.7915779,0.026060427,-0.07910156,1.065918,9,-13,1,3,-4,-9,-3,-1
20.953700065612793,false,-0.114746094,-0.07324219,1.0869141,-0.7903543,0.04095195,-0.07324219,1.0869141,-4,5,-1,-1,-4,-10,0,-2
20.955560088157654,false,-0.22851562,0.05859375,0.8095703,-0.7876784,0.048520405,0.05859375,0.8095703,0,-16,1,0,-1,-65,37,12
20.984416007995605,false,-0.2993164,0.12011719,0.7861328,-0.78508335,0.051390823,0.12011719,0.7861328,-18,-17,-1,0,-2,65,-13,-9
21.01446008682251,false,-0.38330078,0.20019531,1.2285156,-0.7799762,0.05486687,0.20019531,1.2285156,75,101,-1,2,-7,22,-5,-2
21.044088006019592,false,-0.46191406,0.24902344,1.3232422,-0.7753208,0.06439136,0.24902344,1.3232422,-49,63,0,0,1,-18,-28,-1
21.046154022216797,false,-0.29541016,0.13183594,1.0761719,-0.7770923,0.084105656,0.13183594,1.0761719,19,-128,-3,-3,5,-13,6,15
21.07414400577545,false,-0.2548828,-0.026855469,1.0166016,-0.78040725,0.100152366,-0.026855469,1.0166016,-35,-31,-2,-2,-17,2,-6,-6
21.076457023620605,false,-0.28515625,-0.20361328,0.9785156,-0.7804957,0.10680853,-0.20361328,0.9785156,6,80,1,1,1,-3,0,-8
21.10440707206726,false,-0.34277344,-0.14257812,0.90234375,-0.78201854,0.1018034,-0.14257812,0.90234375,-2,-6,1,-1,6,-4,2,-4
21.134188055992126,false,-0.390625,0.036621094,0.87597656,-0.7842776,0.090024084,0.036621094,0.87597656,-3,-14,-1,-2,-2,1,2,-1
21.136195063591003,false,-0.42333984,0.19628906,0.83984375,-0.78543484,0.07964818,0.19628906,0.83984375,-2,1,0,0,1,-3,-4,1
21.164355039596558,false,-0.48876953,0.29101562,0.85009766,-0.7862098,0.07397037,0.29101562,0.85009766,3,-5,-1,1,-4,0,-7,-4
21.193729996681213,false,-0.54052734,0.29052734,0.8540039,-0.7866321,0.07458022,0.29052734,0.8540039,0,-2,-1,-2,-3,-1,2,1
21.195908069610596,false,-0.59472656,0.21240234,0.9428711,-0.7860641,0.07849044,0.21240234,0.9428711,0,10,0,-2,0,4,1,0
21.224017024040222,false,-0.68310547,0.14111328,0.9716797,-0.7848772,0.08337031,0.14111328,0.9716797,0,-4,-1,0,2,0,0,-2
21.253987073898315,false,-0.66308594,0.1015625,0.9760742,-0.7844069,0.08526427,0.1015625,0.9760742,1,-1,-1,-3,1,-2,1,-1
21.255327105522156,false,-0.6035156,0.12695312,0.9355469,-0.7842142,0.083859466,0.12695312,0.9355469,-3,0,-2,-1,2,0,-2,-1
21.284223079681396,false,-0.57714844,0.17089844,0.9008789,-0.78383255,0.08123344,0.17089844,0.9008789,1,2,0,0,-4,-2,-1,-1
21.313915014266968,false,-0.5493164,0.18896484,0.8613281,-0.78333974,0.07958512,0.18896484,0.8613281,0,-3,-1,-2,0,-2,0,-1
21.315609097480774,false,-0.5136719,0.19433594,0.8417969,-0.7826,0.07921819,0.19433594,0.8417969,1,4,-2,1,1,-2,-1,-2
21.34480106830597,false,-0.484375,0.18554688,0.84228516,-0.7816921,0.0797072,0.18554688,0.84228516,-1,-8,0,-1,-4,-1,2,-1
21.374231100082397,false,-0.48339844,0.18457031,0.84814453,-0.7808588,0.080441765,0.18457031,0.84814453,-5,-9,0,-1,-3,-1,0,0
21.377275109291077,false,-0.49267578,0.20117188,0.8642578,-0.7800681,0.080686174,0.20117188,0.8642578,-1,-4,-1,-1,-5,2,2,1
21.40521204471588,false,-0.51171875,0.22021484,0.87890625,-0.77938807,0.080319084,0.22021484,0.87890625,-3,-6,-1,1,-3,1,-1,1
21.43417501449585,false,-0.5332031,0.22949219,0.8823242,-0.77889335,0.07940293,0.22949219,0.8823242,1,3,0,0,1,-3,0,-1
21.436822056770325,false,-0.51171875,0.2265625,0.859375,-0.77824223,0.07848949,0.2265625,0.859375,1,4,0,-2,1,-2,-1,-4
21.46542203426361,false,-0.49902344,0.22705078,0.8364258,-0.7776269,0.07763451,0.22705078,0.8364258,0,-2,-2,-1,0,-1,1,0
21.49416708946228,false,-0.50439453,0.22460938,0.8232422,-0.77704644,0.077448316,0.22460938,0.8232422,-2,4,-1,0,0,1,-1,0
21.496589064598083,false,-0.51123047,0.19921875,0.8149414,-0.77644813,0.078426026,0.19921875,0.8149414,1,1,0,-2,-2,-1,-1,-2
21.526031017303467,false,-0.5053711,0.17089844,0.82373047,-0.77611536,0.079711124,0.17089844,0.82373047,-1,9,0,-1,1,-1,-1,-1
21.55416703224182,false,-0.51416016,0.17529297,0.83447266,-0.77599895,0.08026102,0.17529297,0.83447266,0,0,-3,-2,3,-1,-3,-1
21.557196021080017,false,-0.53027344,0.19140625,0.84765625,-0.7760437,0.08013727,0.19140625,0.84765625,-1,-5,1,1,-2,-1,-1,-1
21.585060000419617,false,-0.5161133,0.18408203,0.84716797,-0.77620965,0.08001344,0.18408203,0.84716797,3,-4,0,1,0,-2,-1,0
21.614350080490112,false,-0.47607422,0.16503906,0.8305664,-0.7766354,0.07970812,0.16503906,0.8305664,1,-4,-2,0,1,2,-3,0
21.61670708656311,false,-0.44970703,0.16455078,0.8354492,-0.77717394,0.07866949,0.16455078,0.8354492,-2,-2,-1,-2,-3,-2,0,-2
21.64525806903839,false,-0.44433594,0.17480469,0.8261719,-0.7777171,0.07750928,0.17480469,0.8261719,1,-1,0,-1,-3,-1,-1,-1
21.674063086509705,false,-0.4272461,0.16113281,0.83496094,-0.7783302,0.076899245,0.16113281,0.83496094,-2,3,0,-1,-1,1,1,-1
21.677357077598572,false,-0.4169922,0.13867188,0.85546875,-0.7790208,0.07653495,0.13867188,0.85546875,-2,-2,-1,0,-2,0,0,0
21.705002069473267,false,-0.4248047,0.13183594,0.8720703,-0.77988595,0.07580359,0.13183594,0.8720703,-1,-5,0,2,-2,2,-1,0
21.733862042427063,false,-0.43652344,0.14208984,0.8984375,-0.78080916,0.07427849,0.14208984,0.8984375,-1,-11,-2,-3,-3,-4,-1,0
21.73600709438324,false,-0.44921875,0.16015625,0.8955078,-0.7816582,0.07238593,0.16015625,0.8955078,-2,-11,-1,-2,-6,-3,-1,0
21.764899015426636,false,-0.4453125,0.16894531,0.8876953,-0.78237957,0.070798054,0.16894531,0.8876953,-1,-1,0,-1,-5,-2,-2,-1
21.793912053108215,false,-0.43554688,0.16552734,0.87890625,-0.78285855,0.06957658,0.16552734,0.87890625,-1,1,-1,-2,-3,-2,-1,0
21.796134114265442,false,-0.43359375,0.16894531,0.8720703,-0.7830552,0.06872331,0.16894531,0.8720703,0,10,-1,-1,0,0,1,-2
21.82512104511261,false,-0.4345703,0.17285156,0.88378906,-0.7829732,0.06811116,0.17285156,0.88378906,-1,10,-1,0,1,1,-1,-1
21.855106115341187,false,-0.4453125,0.18066406,0.8925781,-0.7826737,0.0676234,0.18066406,0.8925781,-2,-4,0,0,-1,0,-2,0
21.856157064437866,false,-0.4663086,0.1875,0.8964844,-0.782262,0.06731958,0.1875,0.8964844,2,0,0,2,-3,0,0,1
21.88523805141449,false,-0.4609375,0.18457031,0.8808594,-0.78171796,0.06719796,0.18457031,0.8808594,0,4,0,-2,0,1,-1,-2
21.914234042167664,false,-0.45507812,0.18261719,0.8564453,-0.78107953,0.067012444,0.18261719,0.8564453,2,2,0,-2,-1,-1,-2,0
21.91638207435608,false,-0.4555664,0.18408203,0.85253906,-0.78036404,0.066708736,0.18408203,0.85253906,0,3,-1,0,2,-2,0,-2
21.944756031036377,false,-0.45996094,0.18554688,0.8515625,-0.77959776,0.06646171,0.18554688,0.8515625,2,3,0,0,0,-2,-1,-1
21.97393000125885,false,-0.4741211,0.18554688,0.85839844,-0.77888954,0.06634171,0.18554688,0.85839844,-1,-1,-2,-2,-2,-2,0,-1
21.976384043693542,false,-0.484375,0.18896484,0.86035156,-0.7782816,0.06615882,0.18896484,0.86035156,0,-2,-2,-2,3,-3,-2,-2
22.004870057106018,false,-0.49560547,0.18261719,0.85058594,-0.7777736,0.06615714,0.18261719,0.85058594,-1,-2,0,-1,0,0,0,1
22.033892035484314,false,-0.49267578,0.18408203,0.8364258,-0.77736783,0.06591483,0.18408203,0.8364258,-1,3,-1,-1,-2,2,-1,-1
22.036455035209656,false,-0.48535156,0.18408203,0.8334961,-0.7771319,0.065427266,0.18408203,0.8334961,-2,4,-1,0,2,0,0,-1
22.065031051635742,false,-0.48486328,0.18798828,0.8378906,-0.77699625,0.064815804,0.18798828,0.8378906,1,3,-1,-2,0,-2,1,-1
22.093704104423523,false,-0.48339844,0.19238281,0.8491211,-0.77694106,0.06414494,0.19238281,0.8491211,1,-1,-1,0,-1,1,-2,0
22.09603703022003,false,-0.4819336,0.19970703,0.8671875,-0.7770988,0.063227385,0.19970703,0.8671875,1,-6,-2,1,-2,0,0,0
22.12510907649994,false,-0.48632812,0.20166016,0.86279297,-0.7772937,0.06225185,0.20166016,0.86279297,0,-7,-2,-1,0,-1,-1,-1
22.153876066207886,false,-0.47607422,0.2006836,0.85546875,-0.77749264,0.0612766,0.2006836,0.85546875,-2,-4,1,-1,-2,-1,-2,1
22.156265020370483,false,-0.46240234,0.1977539,0.85595703,-0.77773297,0.06042185,0.1977539,0.85595703,-3,-4,-1,-1,1,0,-2,0
22.184867024421692,false,-0.46484375,0.19091797,0.8598633,-0.7779074,0.05993292,0.19091797,0.8598633,1,-7,-1,-1,-3,-3,-1,-1
22.21396505832672,false,-0.46484375,0.1928711,0.8564453,-0.7780667,0.05956959,0.1928711,0.8564453,-1,2,0,1,-3,1,0,-1
22.216052055358887,false,-0.4555664,0.19335938,0.86621094,-0.7782228,0.05926236,0.19335938,0.86621094,-1,0,-1,-2,-1,-1,-3,-2
22.244798064231873,false,-0.453125,0.19189453,0.86816406,-0.77842337,0.058897488,0.19189453,0.86816406,-3,-1,0,-2,-2,1,-1,-1
22.27360200881958,false,-0.4555664,0.1953125,0.86083984,-0.7785979,0.05834754,0.1953125,0.86083984,1,0,-1,1,-4,-3,0,-1
22.276294112205505,false,-0.45458984,0.19824219,0.86328125,-0.77877676,0.057736896,0.19824219,0.86328125,-1,3,-2,-2,1,-3,-1,-1
22.30512011051178,false,-0.46044922,0.2084961,0.8535156,-0.7789055,0.057127062,0.2084961,0.8535156,-1,3,1,1,-3,-1,1,-1
22.333859086036682,false,-0.4633789,0.21582031,0.86083984,-0.77906865,0.05651528,0.21582031,0.86083984,-1,-1,-2,-2,0,3,0,1
22.33644700050354,false,-0.46875,0.2163086,0.8457031,-0.7792664,0.056028083,0.2163086,0.8457031,-1,2,-1,0,-1,-2,2,0
22.364801049232483,false,-0.4345703,0.2553711,0.85595703,-0.7793787,0.054928806,0.2553711,0.85595703,3,0,-1,0,2,0,-6,0
22.393795013427734,false,-0.4819336,0.21923828,0.84814453,-0.77986044,0.055233505,0.21923828,0.84814453,-3,9,0,-1,0,0,-1,-1
22.396160006523132,false,-0.51464844,0.20117188,0.85058594,-0.7798913,0.0561512,0.20117188,0.85058594,1,-3,-1,-2,0,-2,-1,1
22.42498505115509,false,-0.46044922,0.2006836,0.8457031,-0.78029513,0.055905383,0.2006836,0.8457031,-1,-5,0,-1,-3,0,1,-1
22.453887104988098,false,-0.49414062,0.21191406,0.8491211,-0.78065073,0.055355344,0.21191406,0.8491211,2,4,-1,-1,0,-2,-1,0
22.45608103275299,false,-0.49560547,0.21972656,0.84375,-0.78092575,0.05462513,0.21972656,0.84375,-2,-5,2,-2,-1,2,-1,-2
22.48491609096527,false,-0.49072266,0.21972656,0.84716797,-0.781269,0.054257337,0.21972656,0.84716797,-2,-5,0,1,-1,-2,-1,0
22.514167070388794,false,-0.48876953,0.21533203,0.84765625,-0.7816483,0.053953078,0.21533203,0.84765625,0,-2,-2,-1,-4,-1,0,2
22.516837000846863,false,-0.49365234,0.21533203,0.85302734,-0.78195167,0.05358676,0.21533203,0.85302734,0,3,-2,-2,2,1,-1,-3
22.54504108428955,false,-0.48486328,0.2241211,0.8535156,-0.78225774,0.05309856,0.2241211,0.8535156,0,0,0,0,0,-2,-2,-1
22.57424008846283,false,-0.49072266,0.21923828,0.84716797,-0.7824481,0.052915953,0.21923828,0.84716797,-1,4,-3,0,2,-2,0,0
22.577460050582886,false,-0.49023438,0.21875,0.85546875,-0.7826695,0.052853383,0.21875,0.85546875,1,4,-2,-3,-3,0,0,-1
22.605258107185364,false,-0.4794922,0.22314453,0.8598633,-0.7828424,0.052669603,0.22314453,0.8598633,-1,-3,-1,1,-1,-1,-2,1
22.634279012680054,false,-0.49267578,0.22753906,0.8642578,-0.7829412,0.052489046,0.22753906,0.8642578,-2,6,0,-1,1,-1,-1,0
22.636871099472046,false,-0.49316406,0.23144531,0.8564453,-0.7829938,0.05236641,0.23144531,0.8564453,0,-1,-1,-1,3,1,-3,-1
22.66499900817871,false,-0.4868164,0.22558594,0.8461914,-0.78309613,0.052181996,0.22558594,0.8461914,-1,3,1,1,-2,-1,-2,-1
22.69394302368164,false,-0.4868164,0.234375,0.8569336,-0.7831656,0.051877398,0.234375,0.8569336,1,3,-2,-1,0,0,1,1
22.696065068244934,false,-0.49804688,0.23144531,0.8647461,-0.78329617,0.051755894,0.23144531,0.8647461,0,0,-1,-1,3,-3,-3,-1
22.72517704963684,false,-0.47998047,0.22167969,0.88671875,-0.78346676,0.051633004,0.22167969,0.88671875,1,-2,-1,-5,-1,2,0,-2
22.7540100812912,false,-0.47216797,0.20605469,0.90625,-0.7838891,0.050961334,0.20605469,0.90625,0,-4,-1,-1,-3,1,0,-2
22.75607705116272,false,-0.47021484,0.18164062,0.90771484,-0.7846868,0.049618915,0.18164062,0.90771484,-2,-5,2,2,0,-1,2,0
22.78486406803131,false,-0.45458984,0.16552734,0.89160156,-0.7857241,0.04742175,0.16552734,0.89160156,5,-1,-2,-2,-2,0,-1,-2
22.81402599811554,false,-0.45361328,0.16796875,0.89746094,-0.78681797,0.043332357,0.16796875,0.89746094,-3,5,-1,-2,2,-2,-2,1
22.81614911556244,false,-0.4584961,0.1899414,0.92089844,-0.7879804,0.037412435,0.1899414,0.92089844,-3,6,1,1,-3,-1,-2,-1
22.8455810546875,false,-0.44726562,0.22265625,0.9667969,-0.7892787,0.030272366,0.22265625,0.9667969,5,-7,-1,-1,-1,2,-1,0
22.875192046165466,false,-0.4477539,0.2998047,1.0727539,-0.79056585,0.021483762,0.2998047,1.0727539,-4,8,0,2,-3,-6,-1,-4
22.877360105514526,false,-0.38623047,0.28808594,1.1289062,-0.7919746,0.011474355,0.28808594,1.1289062,-3,-8,-4,-5,-2,-17,-3,0
22.904844999313354,false,-0.45410156,0.3720703,1.2089844,-0.7927295,0.0006103084,0.3720703,1.2089844,2,5,-1,-1,-7,5,-2,-1
22.933868050575256,false,-0.40722656,0.49072266,1.2387695,-0.7930482,-0.01336598,0.49072266,1.2387695,-9,-27,-2,11,2,1,-2,-5
22.935975074768066,false,-0.3725586,0.52490234,1.2734375,-0.7927532,-0.02752573,0.52490234,1.2734375,5,-3,0,-4,2,2,2,3
22.964961051940918,false,-0.43798828,0.50341797,1.402832,-0.79091567,-0.04284457,0.50341797,1.402832,2,26,-7,-6,-5,1,0,-2
22.993900060653687,false,-0.3984375,0.47509766,1.3779297,-0.7888535,-0.059324227,0.47509766,1.3779297,1,-20,0,13,3,1,1,5
22.99617910385132,false,-0.29589844,0.5073242,1.3852539,-0.7865817,-0.078365214,0.5073242,1.3852539,7,-9,7,1,8,-2,0,2
23.02484703063965,false,-0.25,0.51904297,1.3291016,-0.7826827,-0.098506704,0.51904297,1.3291016,5,6,-1,3,1,-3,0,3
23.05396807193756,false,-0.23486328,0.5366211,1.3007812,-0.7764312,-0.12016924,0.5366211,1.3007812,2,8,0,14,3,12,6,2
23.056143045425415,false,-0.2265625,0.53515625,1.1743164,-0.76779526,-0.14251208,0.53515625,1.1743164,-9,-6,-6,-14,0,1,-2,-2
23.085278034210205,false,-0.07373047,0.32373047,0.90234375,-0.75771505,-0.16265088,0.32373047,0.90234375,3,5,-5,-1,3,-1,-6,-11
23.114172101020813,false,0.10986328,0.20605469,0.80810547,-0.74552286,-0.18346636,0.20605469,0.80810547,-25,-11,3,4,2,0,-1,1
23.116778016090393,false,0.1616211,0.21142578,0.6796875,-0.72996515,-0.20714897,0.21142578,0.6796875,1,66,-9,-9,-15,-9,-6,-8
23.14518904685974,false,0.1616211,0.21875,0.5048828,-0.711634,-0.23002988,0.21875,0.5048828,-10,-128,-9,-11,-8,1,6,7
23.174381017684937,false,0.25,0.18457031,0.39648438,-0.69211894,-0.24889427,0.18457031,0.39648438,13,70,-6,-10,21,6,-5,-4
23.17957305908203,true,0.3017578,0.0703125,0.3359375,-0.6713044,-0.26372454,0.0703125,0.3359375,16,127,0,0,-4,12,11,7
23.204227089881897,true,0.4560547,-0.064941406,0.18554688,-0.65122205,-0.27422124,-0.064941406,0.18554688,-1,44,16,3,8,-14,-7,1
23.23360002040863,true,0.61035156,-0.23828125,0.15820312,-0.63290346,-0.28215167,-0.23828125,0.15820312,-12,-38,-5,-10,5,-7,-3,-9
23.23603105545044,true,0.65722656,-0.27783203,0.13769531,-0.61703783,-0.2869745,-0.27783203,0.13769531,4,-27,4,8,-8,-1,12,12
23.264288067817688,true,0.72558594,-0.33935547,0.17675781,-0.6038062,-0.28771275,-0.33935547,0.17675781,-3,-2,0,-6,-4,0,-7,2
23.29356300830841,true,0.7963867,-0.39208984,0.16894531,-0.5962054,-0.28348592,-0.39208984,0.16894531,2,0,-1,4,-16,-4,-3,4
23.296409010887146,true,0.84765625,-0.35253906,0.18359375,-0.59756625,-0.27513313,-0.35253906,0.18359375,1,-12,-3,-6,2,-7,-8,-11
23.324539065361023,true,0.87939453,-0.4267578,0.1899414,-0.60402906,-0.2635952,-0.4267578,0.1899414,-6,-17,1,11,2,12,6,-4
23.354201078414917,true,0.88134766,-0.57421875,0.1484375,-0.6110698,-0.2510928,-0.57421875,0.1484375,-9,10,7,1,2,-1,-8,2
23.356625080108643,true,0.9160156,-0.7089844,0.099121094,-0.6205341,-0.24120694,-0.7089844,0.099121094,14,-32,-2,1,-10,-12,-10,-12
23.385269045829773,true,0.9248047,-0.71240234,0.1796875,-0.6359763,-0.23498166,-0.71240234,0.1796875,-37,9,16,2,-3,-65,-26,-88
23.41393506526947,true,0.79248047,-0.50390625,0.52978516,-0.6536642,-0.23064396,-0.50390625,0.52978516,-68,-87,16,6,15,49,-43,103
23.416397094726562,true,0.4970703,-0.1772461,1.0854492,-0.6742691,-0.22947608,-0.1772461,1.0854492,8,38,-5,-8,-6,53,83,77
23.44453203678131,true,0.23046875,-0.17382812,1.5957031,-0.69346356,-0.2360779,-0.17382812,1.5957031,121,77,-17,-4,27,-6,-19,53
23.474728107452393,true,0.15429688,-0.4428711,0.43896484,-0.7091966,-0.24925637,-0.4428711,0.43896484,-19,-106,-27,-21,37,-21,-6,-23
23.47687602043152,true,-0.07373047,0.9814453,0.42871094,-0.716036,-0.30034208,0.9814453,0.42871094,-101,-105,0,-7,-58,-89,23,0
23.505592107772827,true,-1.7978516,3.277832,1.0219727,-0.69728583,-0.32841095,3.277832,1.0219727,54,127,-2,5,-35,4,-119,-62
23.53444004058838,true,-0.5878906,0.8959961,1.1904297,-0.6979506,-0.29154512,0.8959961,1.1904297,82,-84,-1,-3,-20,-20,51,-53
23.537475109100342,true,0.3330078,0.44677734,1.121582,-0.7198708,-0.2620708,0.44677734,1.121582,-122,-98,-8,1,7,-74,-15,54
23.565489053726196,true,0.7963867,0.09033203,0.76220703,-0.73335755,-0.23460606,0.09033203,0.76220703,-16,66,-3,-5,-6,-51,8,-29
23.59419810771942,true,0.7734375,-0.390625,0.9321289,-0.7331164,-0.2176401,-0.390625,0.9321289,14,11,16,9,-3,66,17,-6
23.596793055534363,true,0.38916016,-0.19384766,0.9794922,-0.734453,-0.22105607,-0.19384766,0.9794922,12,83,0,-6,-3,35,3,1
23.624820113182068,true,0.27539062,0.24169922,0.8388672,-0.73105764,-0.2328423,0.24169922,0.8388672,22,-7,2,1,0,12,38,3
23.654280066490173,true,0.35058594,0.328125,0.80029297,-0.72927964,-0.23912607,0.328125,0.80029297,-6,-41,-6,-14,7,15,-8,-6
23.656938076019287,true,0.44384766,0.34960938,0.8457031,-0.73091644,-0.23906143,0.34960938,0.8457031,23,43,3,2,6,14,-3,1
23.684771060943604,true,0.34179688,0.27001953,0.8535156,-0.7328125,-0.23430227,0.27001953,0.8535156,-2,-3,-2,2,4,8,-2,-2
23.714173078536987,true,0.265625,0.21728516,0.85302734,-0.7346983,-0.22960085,0.21728516,0.85302734,11,-28,3,6,1,9,-1,-7
23.71684503555298,true,0.24707031,0.22705078,0.8486328,-0.73597336,-0.22630312,0.22705078,0.8486328,-30,4,-7,-2,-1,0,-6,-6
23.74480104446411,true,0.24414062,0.24511719,0.84814453,-0.7365173,-0.2241654,0.24511719,0.84814453,15,1,-1,-3,1,-1,-5,-5
23.774294018745422,true,0.22607422,0.26416016,0.8256836,-0.7367253,-0.22234198,0.26416016,0.8256836,15,-2,-1,1,5,3,-4,-4
23.776844024658203,true,0.1953125,0.26904297,0.8129883,-0.73703206,-0.21959601,0.26904297,0.8129883,1,7,2,3,1,2,-2,-3
23.80488610267639,true,0.16601562,0.24121094,0.7915039,-0.73780817,-0.21513556,0.24121094,0.7915039,-1,5,0,-3,4,4,-1,0
23.83444106578827,false,0.15039062,0.2211914,0.76660156,-0.7387777,-0.20970179,0.2211914,0.76660156,-7,2,-3,-1,2,4,0,-1
23.836908102035522,false,0.140625,0.2084961,0.7519531,-0.7400242,-0.20378892,0.2084961,0.7519531,-3,-4,1,2,-2,1,-2,-2
23.86485505104065,false,0.14550781,0.2265625,0.7348633,-0.74113035,-0.1979318,0.2265625,0.7348633,5,3,-2,0,-2,-2,0,0
23.894749999046326,false,0.1430664,0.23291016,0.70654297,-0.74207854,-0.19206522,0.23291016,0.70654297,-1,4,1,2,3,-1,-1,-3
23.896881103515625,false,0.122558594,0.23144531,0.7109375,-0.74305767,-0.18510833,0.23144531,0.7109375,0,8,1,1,-2,4,0,1
23.92496407032013,false,0.11621094,0.21289062,0.7265625,-0.74439365,-0.17692852,0.21289062,0.7265625,-1,-10,-2,-4,-7,-2,-4,-2
23.954764008522034,false,0.18798828,0.20947266,0.7553711,-0.7461201,-0.1678999,0.20947266,0.7553711,1,-8,-7,-17,-12,-3,0,-3
23.95739710330963,false,0.22802734,0.22802734,0.79003906,-0.7481787,-0.15788713,0.22802734,0.79003906,-1,2,-1,0,-6,-1,-3,-1
23.984800100326538,false,0.17773438,0.26416016,0.8227539,-0.7505215,-0.14690617,0.26416016,0.8227539,0,-13,3,10,-13,-5,0,-2
24.014207005500793,false,0.09716797,0.2866211,0.8666992,-0.75349236,-0.13402472,0.2866211,0.8666992,-2,-11,-1,-2,1,-3,-1,0
24.017091035842896,false,0.032714844,0.2631836,0.9291992,-0.75684285,-0.12004756,0.2631836,0.9291992,0,21,-1,1,3,0,-1,-2
24.04488205909729,false,0.025878906,0.2475586,1.0307617,-0.7596132,-0.10717346,0.2475586,1.0307617,0,-8,-1,1,5,0,-1,-1
24.07426106929779,false,0.0063476562,0.28076172,1.074707,-0.7614714,-0.09789213,0.28076172,1.074707,-1,-12,0,1,-6,-2,0,-2
24.07682704925537,false,-0.04248047,0.3359375,1.0307617,-0.76301247,-0.09093654,0.3359375,1.0307617,0,-3,-1,1,3,2,0,1
24.104841113090515,false,-0.07519531,0.3798828,0.9741211,-0.76528454,-0.083919466,0.3798828,0.9741211,-2,2,-5,-7,4,-1,-1,0
24.134420037269592,false,-0.09423828,0.43945312,0.9716797,-0.7683359,-0.0743984,0.43945312,0.9716797,-4,9,-2,0,6,0,1,-2
24.136792063713074,false,-0.087402344,0.45703125,0.97753906,-0.7713873,-0.062436048,0.45703125,0.97753906,-3,2,1,1,-4,0,0,-2
24.16517210006714,false,-0.084472656,0.37890625,0.97802734,-0.7742316,-0.044735283,0.37890625,0.97802734,4,8,-3,-8,1,7,-2,0
24.19493007659912,false,-0.110839844,0.23583984,1.0688477,-0.7768091,-0.021666186,0.23583984,1.0688477,2,9,-1,1,7,-6,-1,-2
24.19740605354309,false,-0.17041016,0.13769531,1.2055664,-0.77919096,0.00018309493,0.13769531,1.2055664,-5,4,-1,2,0,-2,-1,0
24.22499704360962,false,-0.22802734,0.13330078,1.2978516,-0.7810985,0.01666197,0.13330078,1.2978516,-1,-1,1,3,1,-7,-1,0
24.25395905971527,false,-0.25341797,0.08203125,1.1586914,-0.7826878,0.026366277,0.08203125,1.1586914,-1,-19,2,1,-2,7,0,-2
24.25649404525757,false,-0.3154297,0.38671875,1.6918945,-0.78225213,0.017516296,0.38671875,1.6918945,-12,127,0,-6,-5,-69,-1,-1
24.28514301776886,false,-0.3569336,0.57470703,1.5761719,-0.77796346,0.007873013,0.57470703,1.5761719,22,-114,-2,1,13,102,3,0
24.314096093177795,false,-0.19677734,0.21533203,1.4663086,-0.7788861,0.006042135,0.21533203,1.4663086,12,-86,-3,-2,0,-23,-3,5
24.316798090934753,false,-0.080566406,-0.027832031,1.3344727,-0.7807485,0.0028075697,-0.027832031,1.3344727,-24,40,7,8,-6,-7,3,4
24.34482204914093,false,-0.028320312,0.036132812,1.1303711,-0.7829707,-0.011229762,0.036132812,1.1303711,10,-30,-1,-1,-1,-12,-5,-6
24.374272108078003,false,-0.06640625,0.26708984,0.96875,-0.78432906,-0.030516265,0.26708984,0.96875,-1,48,-3,-3,-10,1,-1,-2
24.37709605693817,false,-0.1875,0.4428711,1.0112305,-0.78305763,-0.046812564,0.4428711,1.0112305,-8,16,-1,-1,5,-4,-2,1
24.40478205680847,false,-0.3227539,0.4736328,1.0673828,-0.78109527,-0.0556007,0.4736328,1.0673828,-7,-8,3,0,-1,3,2,-1
24.4342280626297,false,-0.3178711,0.3959961,1.0976562,-0.77980584,-0.060543742,0.3959961,1.0976562,6,-2,4,8,-1,1,6,5
24.43688404560089,false,-0.2734375,0.35498047,1.0527344,-0.7775511,-0.06835614,0.35498047,1.0527344,-1,13,-7,-12,3,-10,-4,-2
24.464713096618652,false,-0.20019531,0.42382812,1.0473633,-0.7731095,-0.08221193,0.42382812,1.0473633,2,6,-3,-1,1,4,2,0
24.494148015975952,false,-0.15234375,0.55078125,1.0571289,-0.7669906,-0.10064196,0.55078125,1.0571289,-1,-2,-3,-11,-1,0,-4,0
24.496989011764526,false,-0.18408203,0.61083984,1.0341797,-0.7603269,-0.11644757,0.61083984,1.0341797,-5,-6,9,18,0,3,0,-3
24.524923086166382,false,-0.14355469,0.5263672,1.0151367,-0.7542424,-0.12670393,0.5263672,1.0151367,-3,9,-3,-5,-3,-1,-1,0
24.55416202545166,false,-0.09423828,0.44677734,1.0825195,-0.747771,-0.13628572,0.44677734,1.0825195,-4,9,6,15,1,-2,-2,-2
24.556706070899963,false,-0.07861328,0.4350586,1.0874023,-0.74015224,-0.1477619,0.4350586,1.0874023,-5,10,-3,-14,-1,1,-1,-3
24.584790110588074,false,-0.044921875,0.4350586,1.0571289,-0.7313455,-0.16088013,0.4350586,1.0571289,12,17,9,6,-10,5,3,4
24.614233016967773,false,0.01171875,0.44628906,1.0610352,-0.7215855,-0.17443047,0.44628906,1.0610352,6,-12,-1,-3,5,-5,-3,0
24.616722106933594,false,0.083496094,0.40820312,1.0356445,-0.7110277,-0.18743056,0.40820312,1.0356445,1,6,4,5,7,-3,-1,-3
24.645278096199036,false,0.125,0.3881836,1.0273438,-0.6991131,-0.20115902,0.3881836,1.0273438,10,1,-7,3,-10,0,-1,1
24.674848079681396,false,0.15966797,0.35058594,0.9970703,-0.68581754,-0.21513811,0.35058594,0.9970703,8,-3,-6,-5,6,4,3,6
24.677576065063477,false,0.19189453,0.35253906,1.0102539,-0.6712808,-0.22923271,0.35253906,1.0102539,-8,2,-3,-20,-8,6,6,4
24.70514702796936,false,0.23144531,0.3852539,0.9165039,-0.65628016,-0.24242023,0.3852539,0.9165039,-7,-23,-5,6,5,-6,-8,-4
24.734626054763794,false,0.26611328,0.35205078,0.8774414,-0.64096767,-0.254019,0.35205078,0.8774414,5,-8,-7,-4,-7,1,1,4
24.737430095672607,false,0.3076172,0.22509766,0.83691406,-0.62519395,-0.2640169,0.22509766,0.83691406,-7,-4,-5,-2,-4,-5,-3,-3
24.765260100364685,false,0.35205078,0.14892578,0.7553711,-0.6082537,-0.27507523,0.14892578,0.7553711,-3,-3,-1,-4,-4,-3,-1,-1
24.794600009918213,false,0.43164062,0.07080078,0.6303711,-0.58986956,-0.28770253,0.07080078,0.6303711,9,13,5,4,-3,-7,-1,5
24.79733908176422,false,0.4892578,0.015136719,0.52441406,-0.57029235,-0.30046546,0.015136719,0.52441406,-7,12,-12,-20,15,2,-8,-10
24.825754046440125,false,0.5629883,-0.033203125,0.36816406,-0.5505226,-0.312919,-0.033203125,0.36816406,-42,-118,5,8,-4,-1,30,5
24.853766083717346,true,0.65771484,-0.10986328,0.27197266,-0.5312901,-0.32371774,-0.10986328,0.27197266,11,127,6,1,5,4,-1,1
24.856311082839966,true,0.7495117,-0.17333984,0.27539062,-0.51293784,-0.3325185,-0.17333984,0.27539062,11,63,-3,1,-9,9,0,-4
24.884786009788513,true,0.7475586,-0.2084961,0.28564453,-0.49650052,-0.3391584,-0.2084961,0.28564453,-9,-24,-10,-16,6,-12,-14,-32
24.913762092590332,true,0.75097656,-0.28466797,0.23046875,-0.4846635,-0.34331092,-0.28466797,0.23046875,1,5,3,9,2,7,6,9
24.916343092918396,true,0.7871094,-0.34179688,0.16308594,-0.47709674,-0.34526497,-0.34179688,0.16308594,-16,-6,-4,-4,8,-5,-15,-2
24.944391012191772,true,0.81396484,-0.40673828,0.13427734,-0.47387543,-0.3446034,-0.40673828,0.13427734,2,-32,-4,-1,-4,2,-9,-9
24.974102020263672,true,0.83251953,-0.44335938,0.15966797,-0.47453636,-0.34075066,-0.44335938,0.15966797,-1,10,6,3,3,-14,3,10
24.97709608078003,true,0.8461914,-0.45654297,0.17089844,-0.47910765,-0.33464295,-0.45654297,0.17089844,-26,-35,-2,-1,4,-6,-26,-17
25.004804015159607,true,0.87158203,-0.4658203,0.24365234,-0.4894947,-0.3248243,-0.4658203,0.24365234,29,-3,-10,-3,-5,-44,-11,43
25.034837007522583,true,0.8886719,-0.47509766,0.4189453,-0.50301915,-0.3121746,-0.47509766,0.4189453,-49,-84,-3,1,6,24,77,54
25.037695050239563,true,0.84277344,-0.5415039,0.6123047,-0.51896244,-0.29875588,-0.5415039,0.6123047,24,127,18,10,-22,23,4,8
25.064831018447876,true,0.7758789,-0.68066406,0.8125,-0.5357937,-0.28971556,-0.68066406,0.8125,-9,-64,-1,-1,2,7,-22,-73
25.094259023666382,true,0.6220703,-0.4716797,0.9658203,-0.552834,-0.28941694,-0.4716797,0.9658203,82,-42,13,-2,16,-30,-8,31
25.096830010414124,true,0.26953125,0.27246094,0.30371094,-0.56705594,-0.2968026,0.27246094,0.30371094,-11,-20,-16,-27,4,16,2,-7
25.12527310848236,true,-0.24804688,1.2836914,0.8671875,-0.5689427,-0.31205794,1.2836914,0.8671875,6,97,-24,-2,-14,111,-24,-68
25.154264092445374,true,-0.9663086,1.8330078,1.1533203,-0.5658173,-0.3111354,1.8330078,1.1533203,-54,94,3,6,14,13,16,8
25.15682804584503,true,-0.26904297,1.1279297,1.2768555,-0.5781047,-0.28850305,1.1279297,1.2768555,5,-118,26,24,-11,-101,59,23
25.18476903438568,true,0.38867188,0.625,1.1943359,-0.59421754,-0.26878944,0.625,1.1943359,-14,-68,-6,3,2,18,-23,11
25.214498043060303,true,0.40673828,0.21777344,0.9501953,-0.6024296,-0.25510645,0.21777344,0.9501953,15,29,-14,-8,-14,-10,-20,-18
25.21707308292389,true,0.58984375,0.064941406,0.875,-0.59865046,-0.25352165,0.064941406,0.875,4,17,-4,-1,4,-9,-1,15
25.245073080062866,true,0.35498047,0.21484375,0.82128906,-0.5963009,-0.25811222,0.21484375,0.82128906,7,-32,1,-7,9,3,-16,-19
25.274055004119873,true,0.38427734,0.30517578,0.7705078,-0.59452987,-0.2601869,0.30517578,0.7705078,-8,18,1,3,-8,-2,-8,-2
25.27717101573944,true,0.42333984,0.22753906,0.7602539,-0.59523827,-0.25706384,0.22753906,0.7602539,-1,-2,10,-2,3,-7,-5,5
25.306393027305603,true,0.41455078,0.14648438,0.8076172,-0.59750056,-0.25175586,0.14648438,0.8076172,-17,13,9,7,1,5,-1,4
25.335589051246643,true,0.39404297,0.09423828,0.84228516,-0.5989763,-0.24699992,0.09423828,0.84228516,15,-16,4,14,-14,-6,0,-4
25.338330030441284,true,0.36621094,0.14941406,0.82177734,-0.5994696,-0.2457813,0.14941406,0.82177734,10,17,-2,5,-4,-1,-4,1
25.36564302444458,true,0.3383789,0.23339844,0.81591797,-0.5996378,-0.2465076,0.23339844,0.81591797,-2,10,-6,-11,-5,-4,-4,-6
25.394866108894348,true,0.29541016,0.30126953,0.82128906,-0.6003073,-0.24668993,0.30126953,0.82128906,-8,1,-2,0,9,1,-1,-8
25.39741802215576,true,0.26953125,0.27392578,0.8251953,-0.60197043,-0.24456003,0.27392578,0.8251953,-39,1,-3,-2,3,-1,0,3
25.424371004104614,true,0.25390625,0.22314453,0.8286133,-0.6041522,-0.24089189,0.22314453,0.8286133,0,0,2,0,13,3,-4,-5
25.454110026359558,true,0.24560547,0.17529297,0.83984375,-0.6062285,-0.23704734,0.17529297,0.83984375,24,0,-1,-1,-1,2,0,3
25.4566410779953,true,0.27734375,0.15234375,0.85839844,-0.60762525,-0.23435926,0.15234375,0.85839844,3,2,-2,-3,-2,-4,-1,0
25.484355092048645,true,0.29345703,0.17041016,0.8432617,-0.6085474,-0.23344636,0.17041016,0.8432617,-27,5,2,-4,-2,-4,-5,-3
25.514334082603455,false,0.2607422,0.21435547,0.8261719,-0.609215,-0.23332289,0.21435547,0.8261719,-3,-3,-4,-8,-6,-5,-1,-2
25.51703703403473,false,0.16259766,0.22753906,0.7973633,-0.6100255,-0.23216979,0.22753906,0.7973633,3,-3,-3,-6,-9,-1,-4,0
25.54453706741333,false,0.16064453,0.22753906,0.7998047,-0.61130416,-0.22911699,0.22753906,0.7998047,0,-4,1,9,1,1,0,0
25.574693083763123,false,0.2709961,0.1850586,0.8305664,-0.61342525,-0.22502227,0.1850586,0.8305664,-1,-4,1,3,-4,-1,2,0
25.577131032943726,false,0.35791016,0.18554688,0.8066406,-0.6157288,-0.22147684,0.18554688,0.8066406,-3,2,0,1,3,1,1,-3
25.604109048843384,false,0.3330078,0.17382812,0.75439453,-0.6185689,-0.21721625,0.17382812,0.75439453,-1,1,-6,-14,-5,2,1,-1
25.634753108024597,false,0.31396484,0.16308594,0.7480469,-0.6221137,-0.21221322,0.16308594,0.7480469,0,12,-2,-3,-3,4,-3,-1
25.636224031448364,false,0.30810547,0.17089844,0.78808594,-0.62613785,-0.20671888,0.17089844,0.78808594,3,-4,2,8,0,1,-1,0
25.664193034172058,false,0.32128906,0.18701172,0.8017578,-0.6309035,-0.20006788,0.18701172,0.8017578,-1,-4,1,4,1,-4,2,0
25.69440007209778,false,0.29785156,0.18701172,0.80029297,-0.6375437,-0.19164151,0.18701172,0.80029297,-1,-5,0,9,-1,-2,-2,-3
25.696531057357788,false,0.25195312,0.15820312,0.8149414,-0.6459507,-0.18138373,0.15820312,0.8149414,1,2,-3,-2,1,-1,0,-1
25.724295020103455,false,0.22558594,0.11425781,0.81689453,-0.65505517,-0.16985174,0.11425781,0.81689453,0,-1,-2,-4,-4,3,-2,-2
25.754271030426025,false,0.22314453,0.11816406,0.84277344,-0.6646892,-0.15904692,0.11816406,0.84277344,-1,-7,1,2,-1,-9,-4,-1
25.756224036216736,false,0.21679688,0.18164062,0.875,-0.6747679,-0.14958902,0.18164062,0.875,-1,3,-4,-6,2,3,0,-1
25.78453505039215,false,0.14892578,0.3173828,0.9321289,-0.6847833,-0.14086273,0.3173828,0.9321289,-1,4,-1,-2,3,-6,1,1
25.81424903869629,false,0.028320312,0.42138672,0.9667969,-0.6955261,-0.12926678,0.42138672,0.9667969,-9,4,-3,-4,-1,1,-2,-1
25.816740036010742,false,-0.0234375,0.47802734,1.090332,-0.70775133,-0.112607904,0.47802734,1.090332,7,7,-1,-2,-5,2,-2,-3
25.844197034835815,false,-0.013671875,0.3774414,1.1538086,-0.72058684,-0.091179535,0.3774414,1.1538086,6,20,-4,-9,-7,13,3,4
25.874568104743958,false,0.015136719,0.23876953,1.2045898,-0.7319617,-0.07030934,0.23876953,1.2045898,-2,-37,-3,-3,-1,-7,-1,-5
25.87687611579895,false,-0.032714844,0.20751953,1.2114258,-0.74125206,-0.05547947,0.20751953,1.2114258,2,-34,0,-2,-11,-9,0,1
25.904670000076294,false,-0.07714844,0.32910156,1.1699219,-0.74893457,-0.04839908,0.32910156,1.1699219,5,2,5,3,-3,-5,0,-2
25.935115098953247,false,-0.07861328,0.45410156,1.1083984,-0.75510824,-0.043822154,0.45410156,1.1083984,-12,5,2,4,0,1,-2,0
25.93686604499817,false,-0.061035156,0.45898438,1.0415039,-0.759928,-0.03747456,0.45898438,1.0415039,-3,5,0,2,2,-6,-1,-2
25.964545011520386,false,-0.060546875,0.4165039,0.9433594,-0.76301605,-0.028196562,0.4165039,0.9433594,-3,3,-3,2,-1,28,19,8
25.99473011493683,false,-0.07910156,0.40234375,0.7758789,-0.7642991,-0.01989631,0.40234375,0.7758789,1,-7,0,0,-5,29,-5,-3
25.997299075126648,false,-0.2163086,0.32177734,1.0722656,-0.7617404,-0.011168856,0.32177734,1.0722656,0,12,-1,1,-10,-47,-8,-13
26.024189114570618,false,-0.044921875,0.35253906,1.2773438,-0.75733864,-0.004577355,0.35253906,1.2773438,-48,36,-3,-1,-1,5,-15,10
26.054240107536316,false,-0.10644531,0.26367188,1.3867188,-0.75491774,0.005248842,0.26367188,1.3867188,32,-54,0,-2,17,-10,-2,-6
26.084910035133362,false,-0.04736328,0.033203125,1.3168945,-0.757633,0.014037021,0.033203125,1.3168945,-12,-3,-2,-1,1,-7,-3,2
26.114046096801758,false,-0.15673828,0.110839844,1.0654297,-0.7609456,0.017394088,0.110839844,1.0654297,9,-4,2,0,-3,-1,1,4
26.116071105003357,false,-0.10839844,0.20898438,1.1342773,-0.76088613,0.016783804,0.20898438,1.1342773,-4,47,-1,3,-3,-2,0,-7
26.118125081062317,false,-0.28173828,0.15625,1.1171875,-0.76119506,0.0220937,0.15625,1.1171875,18,-12,-1,-1,4,3,1,-1
26.14421010017395,false,-0.33789062,0.016601562,1.0517578,-0.7631487,0.02807489,0.016601562,1.0517578,7,-2,0,-1,-1,0,1,1
26.174291014671326,false,-0.29736328,0.023925781,0.95166016,-0.7648035,0.027831012,0.023925781,0.95166016,-16,0,-2,-2,-4,-2,-1,-2
26.176693081855774,false,-0.25976562,0.13378906,0.8911133,-0.76547575,0.022704272,0.13378906,0.8911133,9,11,-1,-2,7,0,0,0
26.204562067985535,false,-0.2553711,0.24316406,0.8652344,-0.76589966,0.015807476,0.24316406,0.8652344,1,-4,-1,1,-4,-3,-3,-1
26.235429048538208,false,-0.40722656,0.27734375,0.9042969,-0.7653023,0.013183292,0.27734375,0.9042969,-4,-8,-1,2,-2,-4,0,-1
26.239158034324646,false,-0.4038086,0.28564453,0.90625,-0.7646671,0.013732149,0.28564453,0.90625,1,-8,-2,-1,-3,16,-1,0
26.26369607448578,false,-0.37353516,0.23583984,0.89941406,-0.7644535,0.01696751,0.23583984,0.89941406,-2,-10,-1,-1,-5,-7,1,-2
26.293663024902344,false,-0.3623047,0.17041016,0.9033203,-0.76411295,0.021299955,0.17041016,0.9033203,2,-1,-1,-3,-5,-4,1,-2
26.295672059059143,false,-0.3671875,0.16503906,0.92041016,-0.764016,0.023986122,0.16503906,0.92041016,-3,-3,-2,-3,-1,-3,0,1
26.32399308681488,false,-0.38232422,0.18847656,0.9277344,-0.7637851,0.024657918,0.18847656,0.9277344,-3,-2,0,0,-1,0,1,-1
26.354156017303467,false,-0.39697266,0.20410156,0.9194336,-0.7633939,0.02465711,0.20410156,0.9194336,-3,-1,1,1,1,-1,-2,-1
26.35646903514862,false,-0.39892578,0.17871094,0.9199219,-0.7632772,0.024901414,0.17871094,0.9199219,4,4,-3,-4,-1,-2,0,0
26.384132027626038,false,-0.3930664,0.14257812,0.9501953,-0.7634715,0.024718678,0.14257812,0.9501953,0,-1,-1,-2,-1,0,-1,-3
26.41414999961853,false,-0.38232422,0.140625,0.9814453,-0.7639463,0.022582097,0.140625,0.9814453,-4,3,2,1,1,-9,-4,-1
26.416689038276672,false,-0.35986328,0.16699219,0.9946289,-0.764669,0.01837061,0.16699219,0.9946289,3,1,-2,-3,1,1,4,2
26.44423007965088,false,-0.33642578,0.16357422,0.99121094,-0.7656491,0.013305021,0.16357422,0.99121094,-3,-5,-4,-3,-3,0,1,-2
26.4741370677948,false,-0.31201172,0.16455078,0.9838867,-0.7667603,0.006957786,0.16455078,0.9838867,6,-1,-3,-2,-1,2,0,-1
26.47677206993103,false,-0.30908203,0.16796875,1.0146484,-0.76803637,-0.0014037536,0.16796875,1.0146484,-1,4,-1,0,-4,-3,1,0
26.50409507751465,false,-0.3305664,0.2475586,1.0439453,-0.7690173,-0.012755922,0.2475586,1.0439453,-2,1,-2,0,1,2,-2,1
26.5342880487442,false,-0.32080078,0.3178711,1.0317383,-0.7695499,-0.025206132,0.3178711,1.0317383,3,5,1,1,-4,-2,-4,3
26.53636908531189,false,-0.29785156,0.31689453,1.0478516,-0.76972884,-0.036252692,0.31689453,1.0478516,-3,-8,8,13,2,-3,-4,-4
26.564253091812134,false,-0.31640625,0.31591797,1.0996094,-0.76983076,-0.046264306,0.31591797,1.0996094,1,4,6,4,-12,1,3,1
26.594268083572388,false,-0.33203125,0.35253906,1.1513672,-0.7699124,-0.057125486,0.35253906,1.1513672,1,6,-4,-4,6,-3,-2,-1
26.596495032310486,false,-0.31298828,0.40185547,1.1816406,-0.7696511,-0.06804861,0.40185547,1.1816406,0,0,-8,-12,-1,3,4,0
26.62459409236908,false,-0.28955078,0.40185547,1.2216797,-0.76931703,-0.077877715,0.40185547,1.2216797,-5,-14,4,8,-6,-2,-2,1
26.654595017433167,false,-0.2290039,0.3540039,1.2094727,-0.7687069,-0.08788709,0.3540039,1.2094727,-12,-14,-3,0,-17,1,-4,-6
26.65648603439331,false,-0.16503906,0.33691406,1.215332,-0.7677237,-0.09972657,0.33691406,1.215332,5,4,-5,-4,-2,0,2,0
26.68427610397339,false,-0.10644531,0.36083984,1.2016602,-0.7657681,-0.1133974,0.36083984,1.2016602,-4,-1,-6,-8,1,5,1,0
26.71408700942993,false,-0.03515625,0.34326172,1.1557617,-0.76318413,-0.12712616,0.34326172,1.1557617,-4,-5,-2,8,9,-3,0,-3
26.71634602546692,false,0.052734375,0.27978516,1.0947266,-0.76004297,-0.1401316,0.27978516,1.0947266,7,0,-8,-7,10,0,-1,2
26.744152069091797,false,0.14355469,0.21533203,0.99121094,-0.7561206,-0.15392172,0.21533203,0.99121094,-9,-3,5,-3,0,4,9,14
26.774120092391968,false,0.20166016,0.2133789,0.95751953,-0.75065106,-0.16863558,0.2133789,0.95751953,6,11,14,21,1,-2,2,7
26.77669107913971,false,0.20996094,0.22949219,0.9458008,-0.74323463,-0.18364206,0.22949219,0.9458008,-6,-4,-13,-2,0,-1,-6,-18
26.804187059402466,false,0.22998047,0.26708984,0.90234375,-0.7345842,-0.19725624,0.26708984,0.90234375,5,0,1,11,-16,1,-6,-9
26.834521055221558,false,0.28027344,0.27783203,0.9194336,-0.72440666,-0.20903975,0.27783203,0.9194336,-2,-4,-4,-9,-1,0,-4,-9
26.836279034614563,false,0.33789062,0.22265625,0.8417969,-0.7128723,-0.21843922,0.22265625,0.8417969,12,8,7,2,12,-4,1,6
26.864408016204834,false,0.42773438,0.16064453,0.78027344,-0.69924134,-0.2281979,0.16064453,0.78027344,-8,3,-8,-9,1,-5,0,-1
26.894320011138916,true,0.49072266,0.119140625,0.6669922,-0.6824535,-0.23930427,0.119140625,0.6669922,-3,15,16,-4,-10,-3,1,3
26.896591067314148,true,0.59521484,-0.017089844,0.45361328,-0.66378963,-0.24919575,-0.017089844,0.45361328,-6,-9,-8,-2,-4,-3,-2,1
26.924257040023804,true,0.6845703,-0.111816406,0.3388672,-0.6448069,-0.25792277,-0.111816406,0.3388672,-20,-84,10,0,-2,-10,-19,-6
26.95442509651184,true,0.6748047,-0.15039062,0.2836914,-0.625888,-0.2648199,-0.15039062,0.2836914,12,125,-6,-3,14,8,-1,-1
26.95692205429077,true,0.6791992,-0.15673828,0.20263672,-0.6100399,-0.26745322,-0.15673828,0.20263672,10,35,-11,-9,-2,7,11,8
26.984365105628967,true,0.6923828,-0.26708984,0.14990234,-0.6006656,-0.2633481,-0.26708984,0.14990234,5,-6,-1,-4,-15,-7,-14,-3
27.01438307762146,true,0.6611328,-0.4453125,0.2055664,-0.5974074,-0.2541484,-0.4453125,0.2055664,6,-6,5,9,-4,5,12,7
27.017118096351624,true,0.62890625,-0.5605469,0.15429688,-0.5997152,-0.24443915,-0.5605469,0.15429688,-3,-13,-1,-19,-20,-7,2,-3
27.044921040534973,true,0.6772461,-0.5878906,0.114746094,-0.6067452,-0.23516642,-0.5878906,0.114746094,-4,-15,-5,-2,10,-5,-8,-9
27.07448101043701,true,0.71435547,-0.64453125,0.0087890625,-0.61875695,-0.22594577,-0.64453125,0.0087890625,-2,-16,-6,-8,-4,1,5,3
27.076840043067932,true,0.7421875,-0.7426758,-0.05029297,-0.6375464,-0.21605536,-0.7426758,-0.05029297,-2,-1,2,8,3,5,4,-2
27.104915022850037,true,0.72802734,-0.80908203,-0.067871094,-0.6635912,-0.20610204,-0.80908203,-0.067871094,5,4,7,11,6,1,3,5
27.13460600376129,true,0.67529297,-0.75097656,0.028808594,-0.69499,-0.19610107,-0.75097656,0.028808594,26,22,-1,-2,-2,15,-14,-10
27.136820077896118,true,0.5332031,-0.5205078,0.28076172,-0.72781605,-0.18621105,-0.5205078,0.28076172,47,25,11,9,-3,-7,-38,-37
27.165030002593994,true,0.39794922,-0.32910156,0.6899414,-0.7583842,-0.17711501,-0.32910156,0.6899414,-46,-53,-17,-8,-7,19,-31,-128
27.194252014160156,true,0.4555664,-0.47558594,1.168457,-0.7874988,-0.17491835,-0.47558594,1.168457,-128,-111,12,8,2,24,-22,48
27.196778059005737,true,0.53027344,-0.7480469,1.2182617,-0.8132174,-0.19158581,-0.7480469,1.2182617,120,-2,-6,-2,-4,-14,41,81
27.22578501701355,true,0.52783203,-0.9770508,0.6694336,-0.8292593,-0.22918,-0.9770508,0.6694336,-29,45,4,-18,19,-16,19,15
27.25388205051422,true,-0.1430664,0.2705078,0.14355469,-0.83133966,-0.30712143,0.2705078,0.14355469,-69,-61,-11,2,4,-80,-27,-37
27.28494107723236,true,-1.8056641,3.241211,0.17382812,-0.81107944,-0.39281416,3.241211,0.17382812,24,122,-6,-4,-18,46,-22,-11
27.28686511516571,true,-1.0268555,2.850586,0.55029297,-0.8051615,-0.39452425,2.850586,0.55029297,-11,-85,-14,2,33,11,57,-2
27.314478039741516,true,-0.41992188,1.7573242,1.1635742,-0.83297414,-0.33781594,1.7573242,1.1635742,-101,-70,-2,0,-50,-79,-13,-17
27.316771030426025,true,0.58251953,0.5605469,0.7993164,-0.8662467,-0.2757488,0.5605469,0.7993164,26,-128,14,16,-34,13,-1,23
27.34482502937317,true,0.99365234,0.19482422,0.8432617,-0.8770847,-0.23710765,0.19482422,0.8432617,13,127,-2,-4,26,-72,6,6
27.374494075775146,true,0.58496094,-0.22314453,1.0253906,-0.87513167,-0.23155378,-0.22314453,1.0253906,41,-45,-8,-14,-26,25,1,12
27.376711010932922,true,0.3803711,0.26660156,0.8803711,-0.86840534,-0.25352138,0.26660156,0.8803711,6,6,7,5,8,34,4,9
27.40485906600952,true,0.46044922,0.63427734,0.77197266,-0.8611028,-0.27122694,0.63427734,0.77197266,15,43,-5,-4,4,16,10,8
27.434606075286865,true,0.40234375,0.62402344,0.7705078,-0.85830826,-0.27519816,0.62402344,0.7705078,-12,-8,-1,1,9,2,0,-8
27.43680703639984,true,0.3857422,0.5131836,0.82373047,-0.8598335,-0.26720265,0.5131836,0.82373047,-22,-1,0,-1,2,-8,-3,3
27.465014100074768,true,0.27246094,0.3798828,0.8598633,-0.8618356,-0.25566387,0.3798828,0.8598633,8,31,0,-5,2,6,-1,4
27.49425709247589,true,0.20996094,0.33447266,0.87109375,-0.8621379,-0.24748473,0.33447266,0.87109375,36,10,-1,-5,0,2,0,1
27.496746063232422,true,0.19189453,0.3647461,0.8642578,-0.8608117,-0.24370542,0.3647461,0.8642578,32,13,-1,-4,1,2,2,0
27.52555501461029,true,0.19628906,0.37548828,0.8461914,-0.85868233,-0.24108289,0.37548828,0.8461914,-18,-8,-6,-2,-5,-3,-5,1
27.554890036582947,true,0.21972656,0.39111328,0.8364258,-0.8560555,-0.23919019,0.39111328,0.8364258,7,2,-4,-6,2,-1,6,2
27.557627081871033,true,0.23388672,0.39208984,0.8286133,-0.8529231,-0.2373537,0.39208984,0.8286133,8,9,1,4,1,3,0,0
27.585626006126404,true,0.22509766,0.3959961,0.81396484,-0.8494956,-0.23454353,0.3959961,0.81396484,-15,-4,2,11,-1,0,-1,0
27.614919066429138,true,0.22460938,0.3828125,0.79296875,-0.8460846,-0.23002905,0.3828125,0.79296875,-5,8,-7,-7,3,4,-1,-4
27.618139028549194,true,0.20898438,0.36767578,0.76953125,-0.8422716,-0.22417852,0.36767578,0.76953125,-6,-15,-6,14,-2,-5,1,1
27.645334005355835,false,0.19335938,0.32714844,0.78271484,-0.8380328,-0.21648112,0.32714844,0.78271484,3,5,6,8,3,1,-1,1
27.6740620136261,false,0.1665039,0.28320312,0.7885742,-0.83351064,-0.20744692,0.28320312,0.7885742,1,-3,1,-1,1,0,-4,-5
27.676878094673157,false,0.18847656,0.25683594,0.78271484,-0.8288802,-0.19731756,0.25683594,0.78271484,-7,-10,-1,-7,0,-2,2,2
27.70472800731659,false,0.2109375,0.23876953,0.7626953,-0.8241724,-0.186635,0.23876953,0.7626953,-6,13,-4,-16,3,0,-2,-4
27.73467206954956,false,0.2553711,0.2055664,0.72558594,-0.8188666,-0.1755281,0.2055664,0.72558594,3,4,4,2,-6,2,-1,0
27.737043023109436,false,0.2397461,0.14892578,0.7578125,-0.8128444,-0.16338673,0.14892578,0.7578125,3,-1,0,-1,-7,-2,-3,0
27.764939069747925,false,0.21923828,0.08642578,0.84277344,-0.8067836,-0.15074934,0.08642578,0.84277344,1,0,1,6,-9,-2,-4,0
27.794267058372498,false,0.18896484,0.049804688,0.9121094,-0.8016532,-0.13719957,0.049804688,0.9121094,1,-27,2,-10,-13,0,2,0
27.82420301437378,false,0.25683594,0.06542969,0.8413086,-0.79808754,-0.12402216,0.06542969,0.8413086,2,-14,3,6,-2,-2,1,1
27.826932072639465,false,0.32910156,0.09033203,0.7788086,-0.79458404,-0.11120148,0.09033203,0.7788086,6,22,-5,-7,0,-2,-2,-1
27.854610085487366,false,0.2602539,0.0034179688,0.83447266,-0.78988105,-0.09844522,0.0034179688,0.83447266,3,33,-1,1,-1,-2,0,2
27.857856035232544,false,0.114746094,-0.03955078,1.0268555,-0.78499806,-0.08739832,-0.03955078,1.0268555,-11,-23,-1,3,-7,-3,0,-2
27.885151028633118,false,0.0009765625,0.07421875,1.15625,-0.7812958,-0.07964932,0.07421875,1.15625,1,-12,1,0,1,3,-3,-2
27.914432048797607,false,-0.0234375,0.19091797,1.0795898,-0.7793961,-0.07140904,0.19091797,1.0795898,-1,-19,-1,-4,-3,-6,-2,-1
27.944103002548218,false,0.0107421875,0.19433594,0.9824219,-0.7788272,-0.061092865,0.19433594,0.9824219,5,-6,1,4,5,-3,1,-1
28.00446605682373,false,-0.018554688,0.10253906,1.0512695,-0.77730197,-0.050229233,0.10253906,1.0512695,3,27,0,0,-1,0,-1,-1
28.006530046463013,false,-0.11767578,0.06982422,1.1376953,-0.7743698,-0.04247804,0.06982422,1.1376953,-3,6,-1,-2,2,0,1,1
28.034282088279724,false,-0.15527344,0.1928711,1.144043,-0.77213544,-0.0378408,0.1928711,1.144043,-2,8,-1,-3,2,12,1,1
28.034772038459778,false,-0.16113281,0.35595703,0.9824219,-0.7694904,-0.022642842,0.35595703,0.9824219,-1,9,-2,0,-1,25,-3,-1
28.064046025276184,false,-0.18896484,0.2626953,0.93310547,-0.76797706,-0.007934278,0.2626953,0.93310547,2,6,-2,0,0,-3,0,0
28.066031098365784,false,-0.20410156,0.17041016,0.87402344,-0.76583755,0.008178374,0.17041016,0.87402344,1,2,-2,-3,2,-1,-1,-1
28.09428310394287,false,-0.24365234,0.2319336,0.6958008,-0.762896,0.019957358,0.2319336,0.6958008,-6,-11,-1,-2,2,-5,0,-2
28.123748064041138,false,-0.34716797,0.2397461,0.9296875,-0.7571095,0.027952936,0.2397461,0.9296875,-12,45,4,1,-12,72,-9,-7
28.126190066337585,false,-0.47314453,0.32861328,1.1342773,-0.7487838,0.041805927,0.32861328,1.1342773,79,-5,-2,0,-12,-2,-9,4
28.15402603149414,false,-0.37109375,0.22167969,1.1494141,-0.74524164,0.059748717,0.22167969,1.1494141,-60,-81,0,1,4,-9,6,0
28.18401300907135,false,-0.26660156,-0.021972656,1.0664062,-0.7439399,0.0807476,-0.021972656,1.0664062,5,-23,-1,-4,1,-17,4,1
28.185832023620605,false,-0.29882812,-0.15039062,0.98583984,-0.7444999,0.09588534,-0.15039062,0.98583984,2,26,-3,-2,-1,-14,0,-1
28.214570999145508,false,-0.296875,-0.080566406,0.9716797,-0.7450694,0.10045742,-0.080566406,0.9716797,-1,31,-4,-2,1,-14,2,-2
28.244206070899963,false,-0.3774414,0.0390625,1.0390625,-0.74522364,0.09948522,0.0390625,1.0390625,-12,12,0,0,1,-5,-3,-3
28.24615204334259,false,-0.52490234,0.08496094,1.1591797,-0.74605364,0.096552424,0.08496094,1.1591797,-1,-2,0,-2,2,9,1,2
28.27455508708954,false,-0.5751953,0.07519531,1.1137695,-0.74764913,0.094478436,0.07519531,1.1137695,4,-15,-1,1,-2,-3,0,3
28.304397106170654,false,-0.57128906,0.037597656,1.1088867,-0.75142956,0.09209772,0.037597656,1.1088867,0,-1,-2,0,1,-5,1,0
28.3060120344162,false,-0.5415039,0.09082031,0.9951172,-0.75503665,0.08611727,0.09082031,0.9951172,-1,8,0,-2,-1,-1,-1,-4
28.33434009552002,false,-0.48535156,0.19824219,0.8911133,-0.7569164,0.078853086,0.19824219,0.8911133,-6,12,-1,-3,-3,-2,-1,0
28.364018082618713,false,-0.4736328,0.24658203,0.8359375,-0.757229,0.075680174,0.24658203,0.8359375,-4,2,-1,-1,0,-2,0,0
28.365650057792664,false,-0.4716797,0.2133789,0.84228516,-0.756915,0.07744921,0.2133789,0.84228516,-1,-1,0,0,-2,-4,-2,-2
28.394281029701233,false,-0.46484375,0.15478516,0.8691406,-0.75636333,0.08117189,0.15478516,0.8691406,2,4,-2,0,1,-1,1,0
28.42397105693817,false,-0.48095703,0.12011719,0.8881836,-0.75557184,0.083857484,0.12011719,0.8881836,-1,0,-2,1,-1,1,-3,0
28.426149010658264,false,-0.48242188,0.13134766,0.88183594,-0.754855,0.08392025,0.13134766,0.88183594,4,2,1,0,5,0,0,-1
28.45426607131958,false,-0.43896484,0.17480469,0.87597656,-0.75447583,0.08172166,0.17480469,0.87597656,1,1,0,-2,-1,2,2,-1
28.48405611515045,false,-0.47802734,0.2163086,0.8515625,-0.7541236,0.07989218,0.2163086,0.8515625,-1,5,-2,0,-3,-1,-2,-1
28.485658049583435,false,-0.47705078,0.23046875,0.8496094,-0.75388426,0.07873305,0.23046875,0.8496094,0,-8,-1,0,-2,1,-2,-1
28.5145480632782,false,-0.45117188,0.21728516,0.85302734,-0.7540073,0.07824489,0.21728516,0.85302734,-1,-9,-2,-3,-6,1,0,1
28.517490029335022,false,-0.4716797,0.19824219,0.859375,-0.75417364,0.07830419,0.19824219,0.859375,0,-1,0,0,1,-1,-2,-3
28.544984102249146,false,-0.45898438,0.1899414,0.8652344,-0.75460505,0.07781635,0.1899414,0.8652344,0,-4,-2,1,-1,-3,3,0
28.5743510723114,false,-0.45410156,0.18652344,0.86816406,-0.7552496,0.07708123,0.18652344,0.86816406,-1,2,-1,0,-2,-1,-2,1
28.576912999153137,false,-0.4609375,0.18017578,0.8598633,-0.75588113,0.07677823,0.18017578,0.8598633,2,3,1,0,-3,-4,-2,-1
28.604849100112915,false,-0.45703125,0.16699219,0.86572266,-0.75665146,0.07665383,0.16699219,0.86572266,1,4,-2,0,2,-2,-2,-2
28.634440064430237,false,-0.45654297,0.17041016,0.8833008,-0.7574964,0.07629284,0.17041016,0.8833008,0,1,0,-3,-3,0,-2,0
28.663970112800598,false,-0.4638672,0.17236328,0.90283203,-0.75832206,0.0754355,0.17236328,0.90283203,1,3,1,0,2,0,-1,-1
28.665528059005737,false,-0.47851562,0.16894531,0.92626953,-0.75912684,0.07397184,0.16894531,0.92626953,1,4,-1,-1,1,-2,0,0
28.694300055503845,false,-0.49316406,0.13085938,0.95410156,-0.7602141,0.07177359,0.13085938,0.95410156,-1,-2,-1,-1,4,-1,-2,0
28.724383115768433,false,-0.48632812,0.104003906,0.97265625,-0.7617342,0.068355285,0.104003906,0.97265625,0,3,-3,-2,4,-1,0,-2
28.72637104988098,false,-0.47705078,0.140625,1.0092773,-0.76346976,0.062742576,0.140625,1.0092773,6,19,-1,-3,5,-1,1,1
28.75480604171753,false,-0.3359375,0.115722656,1.1044922,-0.7659579,0.053586535,0.115722656,1.1044922,-4,9,-1,-4,-1,-8,-4,-5
28.784823060035706,false,-0.51708984,0.22509766,1.1787109,-0.7686981,0.045163684,0.22509766,1.1787109,-7,-6,-6,2,-6,5,3,-6
28.786214113235474,false,-0.484375,0.29541016,1.1621094,-0.7723127,0.03436163,0.29541016,1.1621094,3,-17,7,19,-3,2,2,1
28.814110040664673,false,-0.3774414,0.31933594,1.1083984,-0.77608865,0.020812064,0.31933594,1.1083984,-3,-3,-8,-17,15,4,-1,-1
28.84419310092926,false,-0.4111328,0.38232422,1.21875,-0.77796924,0.003295704,0.38232422,1.21875,1,11,-2,-15,-13,3,-6,-5
28.845755100250244,false,-0.45703125,0.3647461,1.2822266,-0.77835053,-0.015075087,0.3647461,1.2822266,11,-10,-5,3,-5,-3,-1,2
28.874203085899353,false,-0.38427734,0.3876953,1.3227539,-0.77937186,-0.033933494,0.3876953,1.3227539,3,-7,6,5,-9,-4,0,4
28.904184103012085,false,-0.32958984,0.4326172,1.3071289,-0.78098184,-0.052793786,0.4326172,1.3071289,-1,-6,-2,-9,-12,2,1,-2
28.905882000923157,false,-0.23730469,0.42138672,1.2460938,-0.78188324,-0.07049217,0.42138672,1.2460938,1,1,-4,0,1,-3,-3,-4
28.934468030929565,false,-0.16845703,0.37695312,1.2207031,-0.7810232,-0.088068806,0.37695312,1.2207031,-1,-7,8,9,2,1,3,7
28.963962078094482,false,-0.103515625,0.30859375,1.1606445,-0.77854145,-0.10625906,0.30859375,1.1606445,-10,-4,10,3,-2,0,3,1
28.965614080429077,false,-0.0546875,0.29589844,1.109375,-0.7742079,-0.12646107,0.29589844,1.109375,0,1,-9,-11,-12,-3,-3,-8
28.99487602710724,false,0.016113281,0.32763672,1.0458984,-0.76761407,-0.14763921,0.32763672,1.0458984,0,11,10,12,8,-2,1,1
29.02383804321289,false,0.083984375,0.3564453,0.97509766,-0.7588666,-0.16686033,0.3564453,0.97509766,-7,-9,-10,-19,-1,-5,-9,-13
29.054099082946777,false,0.12988281,0.34179688,0.8881836,-0.7482772,-0.18359035,0.34179688,0.8881836,5,-4,-5,1,0,2,4,7
29.055971026420593,false,0.18359375,0.2993164,0.80371094,-0.735614,-0.19859686,0.2993164,0.80371094,5,-6,-3,14,6,-4,-3,-1
29.08410406112671,false,0.2998047,0.18359375,0.68115234,-0.7203587,-0.2124518,0.18359375,0.68115234,-1,0,-2,-4,2,4,-1,-2
29.08559501171112,false,0.35595703,0.11816406,0.61572266,-0.70212376,-0.22661556,0.11816406,0.61572266,-15,18,22,4,2,-8,-10,-6
29.114095091819763,false,0.42822266,0.020996094,0.40673828,-0.6814474,-0.23998666,0.020996094,0.40673828,25,37,-9,1,-5,5,6,10
29.144214034080505,false,0.54345703,-0.051757812,0.30078125,-0.6599879,-0.25230166,-0.051757812,0.30078125,-18,-72,2,9,0,8,12,7
29.146563053131104,false,0.59277344,-0.119628906,0.23095703,-0.6388194,-0.26182625,-0.119628906,0.23095703,22,127,-10,-3,9,-11,-2,13
29.174506068229675,true,0.59814453,-0.12207031,0.26416016,-0.6195545,-0.26787752,-0.12207031,0.26416016,2,2,4,9,-2,8,5,0
29.20453703403473,true,0.61865234,-0.15478516,0.24658203,-0.6034921,-0.26878834,-0.15478516,0.24658203,-3,-46,-24,3,4,2,-3,-9
29.206736087799072,true,0.6665039,-0.2763672,0.26464844,-0.5918433,-0.26549637,-0.2763672,0.26464844,3,-9,17,0,-9,1,-2,-3
29.23655605316162,true,0.7192383,-0.36132812,0.22021484,-0.5821944,-0.26225907,-0.36132812,0.22021484,-19,11,-14,-3,1,-7,1,-10
29.263890027999878,true,0.7524414,-0.39208984,0.17871094,-0.5735886,-0.2612825,-0.39208984,0.17871094,3,2,9,11,-6,3,0,5
29.265806078910828,true,0.7241211,-0.41308594,0.15966797,-0.5663909,-0.26085716,-0.41308594,0.15966797,0,-4,1,1,-8,6,-3,-3
29.294295072555542,true,0.7216797,-0.39648438,0.18066406,-0.5636358,-0.25963256,-0.39648438,0.18066406,4,-2,2,-3,3,-2,-6,-7
29.324783086776733,true,0.7319336,-0.3881836,0.14892578,-0.56661665,-0.25614932,-0.3881836,0.14892578,-3,-3,13,1,11,-2,-2,1
29.32740008831024,true,0.7675781,-0.44433594,0.095703125,-0.57561904,-0.2495102,-0.44433594,0.095703125,5,-7,-1,-1,2,-8,-2,1
29.354209065437317,true,0.77490234,-0.51904297,0.08105469,-0.59078896,-0.23930615,-0.51904297,0.08105469,9,1,-7,-18,-24,-10,-4,0
29.38631808757782,true,0.7397461,-0.5571289,0.071777344,-0.6131346,-0.22814028,-0.5571289,0.071777344,-10,-2,-6,-4,0,0,2,-1
29.3876531124115,true,0.71728516,-0.6279297,0.040039062,-0.63927054,-0.21575534,-0.6279297,0.040039062,-8,-4,-6,-1,8,0,-1,-7
29.444286108016968,true,0.69970703,-0.6958008,0.09765625,-0.66802144,-0.20336659,-0.6958008,0.09765625,5,10,1,-5,0,-10,-2,-15
29.44620406627655,true,0.65722656,-0.6459961,0.27490234,-0.6973748,-0.1935389,-0.6459961,0.27490234,-18,5,-3,1,-7,14,-42,-45
29.474415063858032,true,0.5161133,-0.45996094,0.91308594,-0.75314814,-0.1887753,-0.45996094,0.91308594,-22,27,-5,6,-11,-15,106,-16
29.504239082336426,true,0.4794922,-0.30126953,1.2314453,-0.77786,-0.20104125,-0.30126953,1.2314453,78,-29,-15,-23,-31,58,-44,-28
29.506363034248352,true,0.34326172,-0.5102539,1.0874023,-0.7960845,-0.2212363,-0.5102539,1.0874023,-20,-120,-12,-46,12,18,0,17
29.53446900844574,true,0.040527344,0.107421875,0.14501953,-0.8097251,-0.25682697,0.107421875,0.14501953,-71,-35,-10,-23,56,-65,20,14
29.564934015274048,true,-1.1499023,1.7822266,0.54589844,-0.80948824,-0.31334636,1.7822266,0.54589844,61,123,2,7,0,97,4,-15
29.56720209121704,true,-1.8056641,2.8081055,1.0053711,-0.8013559,-0.33030754,2.8081055,1.0053711,-33,-35,-18,35,-25,-43,-56,-7
29.594191074371338,true,-0.5961914,1.0556641,1.2421875,-0.81293595,-0.2875181,1.0556641,1.2421875,-26,-89,15,7,-43,-89,35,5
29.624526023864746,true,0.2529297,0.67285156,1.2036133,-0.83876026,-0.2415029,0.67285156,1.2036133,-17,-126,3,3,-51,-30,-17,23
29.62703800201416,true,0.56396484,0.19335938,0.9536133,-0.85172254,-0.20733081,0.19335938,0.9536133,4,127,0,5,37,-28,6,-19
29.654163002967834,true,0.7597656,-0.20117188,1.0170898,-0.84778935,-0.19823049,-0.20117188,1.0170898,19,-46,2,3,3,12,-2,-9
29.68456208705902,true,0.2861328,0.18652344,0.9995117,-0.84492505,-0.21275707,0.18652344,0.9995117,16,8,14,3,9,16,-1,6
29.686464071273804,true,0.22314453,0.49316406,0.9003906,-0.8398865,-0.22716789,0.49316406,0.9003906,44,53,1,0,6,8,-7,-7
29.714357018470764,true,0.2109375,0.5083008,0.890625,-0.83694416,-0.23088746,0.5083008,0.890625,-9,-17,1,5,7,9,2,-1
29.74436902999878,true,0.21044922,0.45458984,0.87939453,-0.8376564,-0.22520599,0.45458984,0.87939453,1,17,3,4,7,5,2,6
29.74639105796814,true,0.19677734,0.34960938,0.90185547,-0.8393064,-0.2136716,0.34960938,0.90185547,-2,18,4,0,2,-3,-6,-5
29.774346113204956,true,0.12207031,0.26611328,0.8955078,-0.84010136,-0.20335762,0.26611328,0.8955078,6,0,-1,-7,-2,4,1,0
29.804339051246643,true,0.072753906,0.26513672,0.8564453,-0.8388322,-0.1976236,0.26513672,0.8564453,14,12,5,3,-2,1,-1,-1
29.80644702911377,true,0.05859375,0.31201172,0.84472656,-0.8357736,-0.19560789,0.31201172,0.84472656,-22,12,7,-3,2,2,-3,-4
29.83450210094452,true,0.07080078,0.375,0.8286133,-0.8320633,-0.19463433,0.375,0.8286133,3,-8,-6,-1,0,1,-1,1
29.86432409286499,false,0.08886719,0.3881836,0.8100586,-0.8284994,-0.1915161,0.3881836,0.8100586,-7,4,0,-5,2,6,0,1
29.866416096687317,false,0.095214844,0.375,0.7680664,-0.8250265,-0.18547533,0.375,0.7680664,3,1,-1,5,5,0,2,1
29.894260048866272,false,0.080566406,0.3256836,0.7475586,-0.82126164,-0.17711811,0.3256836,0.7475586,-1,-8,-12,3,-2,-4,0,-3
29.92429506778717,false,0.09765625,0.28222656,0.73779297,-0.8164964,-0.16729082,0.28222656,0.73779297,4,34,2,1,-3,3,0,-1
29.927003026008606,false,0.11669922,0.16455078,0.82470703,-0.8106803,-0.15508083,0.16455078,0.82470703,-2,-13,4,-1,5,1,-3,-4
29.954983115196228,false,0.10498047,0.1171875,0.8803711,-0.8051313,-0.14220406,0.1171875,0.8803711,-2,-13,-8,-11,-8,-4,1,-2
29.984994053840637,false,0.09082031,0.13476562,0.8457031,-0.8009477,-0.12969701,0.13476562,0.8457031,-4,-10,0,8,-7,4,1,-1
29.989979028701782,false,0.16210938,0.18066406,0.79833984,-0.7971332,-0.117485754,0.18066406,0.79833984,2,14,2,-4,-5,-3,0,1
30.014451026916504,false,0.19580078,0.12841797,0.81884766,-0.7927542,-0.102534994,0.12841797,0.81884766,2,1,0,3,-6,1,0,-2
30.044541001319885,false,0.14501953,0.0029296875,0.91503906,-0.7881586,-0.08483355,0.0029296875,0.91503906,-3,-24,-1,2,2,-5,-2,-2
30.046301007270813,false,0.10058594,-0.041992188,0.96533203,-0.78436726,-0.069025785,-0.041992188,0.96533203,-1,-10,4,8,-4,-2,-2,-1
30.07424008846283,false,0.07763672,0.0043945312,0.91015625,-0.78179556,-0.05565945,0.0043945312,0.91015625,-2,-4,0,-2,2,0,-2,0
30.105016112327576,false,0.09277344,0.061523438,0.85302734,-0.779937,-0.04211257,0.061523438,0.85302734,7,19,-7,-14,-16,-9,-5,-1
30.107300996780396,false,0.044921875,0.061035156,0.86279297,-0.778304,-0.025451126,0.061035156,0.86279297,3,11,5,1,-1,2,-7,-4
30.13434910774231,false,-0.046875,0.04638672,0.91308594,-0.77706873,-0.0070187645,0.04638672,0.91308594,1,34,14,12,-22,-5,-16,-14
30.164233088493347,false,-0.11328125,0.099121094,0.9863281,-0.77645373,0.012999893,0.099121094,0.9863281,-8,-22,-6,0,20,-5,-3,-2
30.166624069213867,false,-0.2006836,0.11816406,1.0507812,-0.77544457,0.035766274,0.11816406,1.0507812,6,18,-8,-4,23,18,-17,-2
30.194221019744873,false,-0.25976562,0.05810547,1.0717773,-0.77425545,0.06121537,0.05810547,1.0717773,-14,-96,0,-6,-4,0,9,35
30.224500060081482,false,-0.23046875,-0.14257812,1.1132812,-0.7734721,0.08794865,-0.14257812,1.1132812,7,99,-1,20,5,1,-25,-10
30.22716200351715,false,-0.07763672,-0.2993164,1.0014648,-0.7725029,0.1091892,-0.2993164,1.0014648,-5,85,-1,-8,4,-2,19,-10
30.254261016845703,false,0.0073242188,-0.34765625,0.8935547,-0.7727913,0.12218671,-0.34765625,0.8935547,-2,77,-6,-3,-4,-14,8,3
30.28435206413269,false,-0.071777344,-0.23486328,0.8125,-0.7736318,0.12590742,-0.23486328,0.8125,0,-38,-3,-5,-10,-6,-7,6
30.287708044052124,false,-0.3955078,0.021972656,0.79541016,-0.77345675,0.12609182,0.021972656,0.79541016,-8,-53,4,1,-2,-86,0,-16
30.314311027526855,false,-0.62939453,0.022949219,1.3217773,-0.77066636,0.12786458,0.022949219,1.3217773,4,-48,-1,-4,9,106,27,23
30.344259023666382,false,-0.8676758,-0.4663086,2.4960938,-0.77143323,0.118827574,-0.4663086,2.4960938,-53,-128,4,-3,2,-9,2,-15
30.34616506099701,false,-0.5854492,-0.067871094,1.8969727,-0.7820266,0.10540544,-0.067871094,1.8969727,70,104,-3,1,9,-19,-3,37
30.374698042869568,false,-0.16699219,0.39794922,1.1889648,-0.7949689,0.083372556,0.39794922,1.1889648,-6,54,-1,-3,-6,14,-2,-8
30.404524087905884,false,-0.31689453,0.43408203,0.7763672,-0.79935336,0.065854944,0.43408203,0.7763672,-11,-33,-2,-1,-8,2,0,-15
30.407127022743225,false,-0.2993164,0.30908203,0.7714844,-0.80025595,0.06017788,0.30908203,0.7714844,-2,-30,0,-3,0,0,-8,-11
30.434150099754333,false,-0.37158203,0.17333984,0.7910156,-0.79900855,0.062495016,0.17333984,0.7910156,1,-6,1,-3,1,-5,4,0
30.46424901485443,false,-0.39892578,0.115234375,0.8754883,-0.79615843,0.06609733,0.115234375,0.8754883,2,-9,2,-5,-3,3,2,-2
30.46627104282379,false,-0.4975586,0.111816406,0.9638672,-0.7927468,0.071163505,0.111816406,0.9638672,2,2,-1,1,2,2,-6,-2
30.494386076927185,false,-0.5493164,0.096191406,1.0131836,-0.7893347,0.07738935,0.096191406,1.0131836,1,-6,-4,-1,-3,1,2,-2
30.524190068244934,false,-0.53125,0.09375,1.0136719,-0.78656256,0.08220824,0.09375,1.0136719,-1,0,-2,1,4,-2,2,0
30.526703000068665,false,-0.5126953,0.084472656,0.9897461,-0.78420204,0.08422436,0.084472656,0.9897461,1,0,0,3,12,-1,2,1
30.55417311191559,false,-0.5004883,0.09472656,0.9370117,-0.78207046,0.08324833,0.09472656,0.9370117,1,-3,-2,-6,-4,-2,0,0
30.584357023239136,false,-0.44433594,0.16210938,0.8442383,-0.78012943,0.0788552,0.16210938,0.8442383,0,0,2,3,-2,-1,-5,-2
30.58634102344513,false,-0.3955078,0.22607422,0.81640625,-0.7777331,0.07342172,0.22607422,0.81640625,-1,2,0,1,-1,-1,1,-2
30.614525079727173,false,-0.3774414,0.20166016,0.7993164,-0.77503276,0.069209166,0.20166016,0.7993164,-2,0,-2,-1,-1,-1,1,0
30.644901037216187,false,-0.3383789,0.15771484,0.7949219,-0.77225876,0.06609944,0.15771484,0.7949219,0,-1,-2,0,-1,-1,0,-1
30.646931052207947,false,-0.29589844,0.1459961,0.7734375,-0.7696025,0.06310619,0.1459961,0.7734375,0,-4,-5,-1,-3,-2,1,-2
30.674153089523315,false,-0.25976562,0.13085938,0.76904297,-0.76694334,0.06097218,0.13085938,0.76904297,-2,0,-1,-2,2,-2,-2,-1
30.70438301563263,false,-0.27392578,0.1381836,0.80078125,-0.764117,0.059444882,0.1381836,0.80078125,0,2,-1,1,0,2,-2,0
30.706364035606384,false,-0.28271484,0.12402344,0.828125,-0.76083124,0.05840811,0.12402344,0.828125,-2,0,3,-1,-4,-1,2,-1
30.73414409160614,false,-0.29345703,0.119628906,0.86279297,-0.75719655,0.057616763,0.119628906,0.86279297,-1,-1,-3,-1,0,-2,-1,-1
30.76431703567505,false,-0.3100586,0.140625,0.9042969,-0.75338393,0.056454968,0.140625,0.9042969,0,-3,0,0,-2,-1,-1,0
30.76634109020233,false,-0.37890625,0.19384766,0.9238281,-0.74893105,0.055478636,0.19384766,0.9238281,-2,-1,2,0,2,-3,-1,-1
30.794170022010803,false,-0.51220703,0.26904297,1.0595703,-0.74337834,0.054441173,0.26904297,1.0595703,-2,-2,6,4,5,0,-2,-2
30.824236035346985,false,-0.54589844,0.3071289,1.1074219,-0.73660713,0.05572312,0.3071289,1.1074219,3,6,-2,-2,-21,4,-1,1
30.826723098754883,false,-0.46875,0.2084961,1.1855469,-0.7301787,0.058468007,0.2084961,1.1855469,0,0,-2,0,-11,-4,3,-1
30.855043053627014,false,-0.4428711,0.083496094,1.2182617,-0.72415763,0.060300693,0.083496094,1.2182617,-2,-2,2,6,4,-4,2,0
30.88484799861908,false,-0.4633789,0.06298828,1.2104492,-0.7189158,0.058409236,0.06298828,1.2104492,-2,-2,3,2,1,-2,0,-2
30.887976050376892,false,-0.45458984,0.11425781,1.1591797,-0.714381,0.053342074,0.11425781,1.1591797,3,-1,-9,-14,3,-4,1,3
30.914964079856873,false,-0.44628906,0.10644531,1.1376953,-0.7103657,0.04748385,0.10644531,1.1376953,-1,-1,-8,-5,2,2,-5,-3
30.944213032722473,false,-0.45458984,0.19726562,1.1713867,-0.7066833,0.0401587,0.19726562,1.1713867,-1,-4,5,11,4,-3,-2,-2
30.946669101715088,false,-0.4194336,0.31054688,1.1748047,-0.70295995,0.032407686,0.31054688,1.1748047,-1,-5,-5,-6,3,1,-2,-1
30.975081086158752,false,-0.4165039,0.3486328,1.1401367,-0.69913477,0.026732521,0.3486328,1.1401367,-3,0,-6,-9,4,4,-1,-1
31.00483810901642,false,-0.4482422,0.3701172,1.1240234,-0.695583,0.021971561,0.3701172,1.1240234,5,0,-5,-10,-2,4,-1,1
31.00765609741211,false,-0.4975586,0.42529297,1.0625,-0.69211584,0.016784113,0.42529297,1.0625,-2,-2,0,2,-1,1,-1,-2
31.034983038902283,false,-0.55371094,0.45361328,0.98583984,-0.68906283,0.011596275,0.45361328,0.98583984,-1,5,3,7,2,-1,-2,-1
31.064158082008362,false,-0.60839844,0.45214844,0.92871094,-0.6867454,0.00689675,0.45214844,0.92871094,-5,3,1,3,5,-2,-2,-2
31.066789031028748,false,-0.6333008,0.48095703,0.89453125,-0.68551093,0.0014647669,0.48095703,0.89453125,4,1,-1,-3,0,3,2,5
31.095750093460083,false,-0.64941406,0.5205078,0.8847656,-0.6855147,-0.0044553573,0.5205078,0.8847656,-3,-11,6,10,2,-4,-2,-3
31.124328017234802,false,-0.64501953,0.50683594,0.8310547,-0.6869704,-0.009948133,0.50683594,0.8310547,4,3,-4,-3,1,-4,1,2
31.127174019813538,false,-0.6020508,0.47851562,0.81347656,-0.6897225,-0.015746253,0.47851562,0.81347656,3,-1,4,1,-10,-2,-1,-1
31.154823064804077,false,-0.5541992,0.48388672,0.7939453,-0.6929067,-0.023497673,0.48388672,0.7939453,1,3,2,3,-5,2,-3,1
31.18428599834442,false,-0.52978516,0.5214844,0.80859375,-0.69589686,-0.032957755,0.5214844,0.80859375,1,-1,2,7,-2,-3,-2,1
31.186506032943726,false,-0.5151367,0.53515625,0.7998047,-0.6988134,-0.04150158,0.53515625,0.7998047,1,-6,-2,-5,-4,0,-1,1
31.214543104171753,false,-0.5,0.48486328,0.8027344,-0.70218706,-0.046934534,0.48486328,0.8027344,-1,-24,-3,-3,-5,-1,2,0
31.244988083839417,false,-0.47753906,0.45654297,0.83984375,-0.7062427,-0.05035,0.45654297,0.83984375,1,43,-4,-4,-1,-3,-3,0
31.24626100063324,false,-0.4951172,0.4272461,0.86083984,-0.7104811,-0.053281505,0.4272461,0.86083984,-4,-56,-2,4,-7,-1,-1,-2
31.273835062980652,false,-0.51416016,0.44970703,0.88916016,-0.71456546,-0.056576885,0.44970703,0.88916016,0,23,0,-3,-1,-1,0,2
31.304316997528076,false,-0.54785156,0.4741211,0.8676758,-0.7187774,-0.05956753,0.4741211,0.8676758,-2,16,0,-2,-1,-2,0,-1
31.30606210231781,false,-0.5419922,0.48388672,0.8232422,-0.7235736,-0.061762527,0.48388672,0.8232422,0,-8,-2,0,1,2,-2,-1
31.3345890045166,false,-0.51220703,0.46972656,0.77685547,-0.72860175,-0.0632293,0.46972656,0.77685547,0,2,-2,-6,0,1,0,0
31.364296078681946,false,-0.4819336,0.48291016,0.76708984,-0.7335407,-0.06530398,0.48291016,0.76708984,0,3,-1,0,3,-1,1,-1
31.366295099258423,false,-0.4609375,0.47851562,0.7597656,-0.73867625,-0.067440905,0.47851562,0.7597656,-2,3,2,3,-1,0,0,-1
31.394724011421204,false,-0.44628906,0.46435547,0.7475586,-0.7445689,-0.06926932,0.46435547,0.7475586,0,2,0,1,0,1,0,-2
31.424291014671326,false,-0.4194336,0.44726562,0.71777344,-0.75124836,-0.07171312,0.44726562,0.71777344,-3,-3,-1,-2,1,0,1,-1
31.426735043525696,false,-0.38134766,0.44921875,0.68115234,-0.7584398,-0.07580125,0.44921875,0.68115234,1,8,1,1,2,0,-3,-2
31.454570055007935,false,-0.3515625,0.4350586,0.6303711,-0.7661047,-0.08099274,0.4350586,0.6303711,-1,1,1,1,6,-4,-2,0
31.484275102615356,false,-0.3256836,0.42919922,0.58691406,-0.77424973,-0.08672622,0.42919922,0.58691406,2,3,0,0,0,-2,-2,-1
31.486706018447876,false,-0.29492188,0.41992188,0.5600586,-0.7829041,-0.09252281,0.41992188,0.5600586,-1,-5,-1,-1,-2,0,-2,0
31.514647006988525,false,-0.2841797,0.41992188,0.5205078,-0.79202396,-0.098324,0.41992188,0.5205078,0,-55,-2,-3,-7,-2,-1,1
31.54428005218506,false,-0.26171875,0.4116211,0.5048828,-0.8013084,-0.10455033,0.4116211,0.5048828,2,64,-1,-1,-4,-2,0,-1
31.546589016914368,false,-0.22167969,0.3803711,0.4794922,-0.8104389,-0.11077239,0.3803711,0.4794922,-13,-75,1,0,-7,-4,-1,-3
31.57437801361084,false,-0.16601562,0.36621094,0.4741211,-0.8194622,-0.11760659,0.36621094,0.4741211,6,127,-3,-3,-4,0,0,3
31.603962063789368,false,-0.1381836,0.4086914,0.49853516,-0.82794935,-0.12621254,0.4086914,0.49853516,-6,-87,0,1,-5,-3,0,-4
31.605622053146362,false,-0.1352539,0.46777344,0.5102539,-0.8359492,-0.13555108,0.46777344,0.5102539,6,127,-1,-1,5,2,-2,0
31.634454011917114,false,-0.13427734,0.5004883,0.5253906,-0.8438746,-0.14323957,0.5004883,0.5253906,1,-4,0,-1,3,-1,0,0
31.66392707824707,false,-0.12841797,0.50439453,0.54833984,-0.85214317,-0.14867647,0.50439453,0.54833984,-1,-11,-2,0,0,0,0,-1
31.665601015090942,false,-0.11816406,0.48339844,0.56640625,-0.8603655,-0.15312883,0.48339844,0.56640625,-1,5,-2,-2,1,0,-2,-1
31.6941339969635,false,-0.11425781,0.4868164,0.59521484,-0.8678704,-0.15856028,0.4868164,0.59521484,-2,1,1,1,1,-1,1,0
31.724096059799194,false,-0.09863281,0.52783203,0.6557617,-0.87428796,-0.16582482,0.52783203,0.6557617,-1,-1,-1,-2,2,0,0,0
31.72658109664917,false,-0.09814453,0.5673828,0.69921875,-0.8800505,-0.17303164,0.5673828,0.69921875,-2,-1,0,-1,0,1,-1,-2
31.754825115203857,false,-0.10546875,0.56347656,0.75878906,-0.8859828,-0.17839277,0.56347656,0.75878906,-2,-95,2,3,-1,-3,2,0
31.784308075904846,false,-0.11279297,0.5336914,0.8286133,-0.89241976,-0.18169427,0.5336914,0.8286133,3,93,4,7,-2,1,1,0
31.786641001701355,false,-0.1015625,0.52246094,0.9013672,-0.89904094,-0.18492255,0.52246094,0.9013672,-2,29,-14,-14,-3,1,-1,0
31.814542055130005,false,-0.095214844,0.60302734,0.97998047,-0.9049043,-0.19145375,0.60302734,0.97998047,3,-2,14,4,2,-3,1,3
31.844391107559204,false,-0.111816406,0.7236328,1.0273438,-0.9106601,-0.19725578,0.7236328,1.0273438,-3,-6,-17,-27,8,3,0,-3
31.845994114875793,false,-0.08886719,0.74316406,1.1420898,-0.9164054,-0.20110261,0.74316406,1.1420898,-1,-3,8,16,-4,2,0,-5
31.874436020851135,false,-0.064453125,0.6870117,1.184082,-0.9228522,-0.20067047,0.6870117,1.184082,-11,-16,-21,-20,-18,-1,-4,-7
31.904097080230713,false,-0.0146484375,0.6425781,1.1855469,-0.9288348,-0.20073183,0.6425781,1.1855469,-1,-26,16,36,-9,-6,-5,-1
31.905797004699707,false,0.00390625,0.6767578,1.1791992,-0.93330353,-0.20299292,0.6767578,1.1791992,3,0,7,-3,-8,3,1,8
31.934335112571716,false,0.05517578,0.66503906,1.1220703,-0.9367694,-0.20360042,0.66503906,1.1220703,8,20,-4,1,13,-1,7,13
31.964141011238098,false,0.13574219,0.6323242,1.0664062,-0.9393675,-0.2028145,0.6323242,1.0664062,6,10,-9,-15,-5,-2,-2,-4
31.965768098831177,false,0.18066406,0.5498047,0.9863281,-0.940376,-0.20140451,0.5498047,0.9863281,-19,-15,-5,-6,-3,7,-2,-8
31.99419105052948,false,0.22363281,0.42236328,0.94091797,-0.93906766,-0.20080155,0.42236328,0.94091797,-5,-19,8,14,-7,-7,-5,-1
32.02535605430603,false,0.25390625,0.33935547,0.8076172,-0.93554914,-0.2010982,0.33935547,0.8076172,44,3,11,5,9,-2,-2,0
32.02657401561737,false,0.30419922,0.2607422,0.71777344,-0.9301992,-0.20116374,0.2607422,0.71777344,28,-11,6,6,-1,-1,-5,-4
32.05486309528351,false,0.35009766,0.21728516,0.63378906,-0.92306775,-0.20061648,0.21728516,0.63378906,-80,-49,-6,-14,4,-3,0,-9
32.084299087524414,false,0.40234375,0.20117188,0.61376953,-0.9143741,-0.19865757,0.20117188,0.61376953,-6,34,10,4,-12,0,0,-5
32.086714029312134,false,0.4663086,0.17333984,0.54785156,-0.90493923,-0.19274284,0.17333984,0.54785156,5,-8,-14,-7,-13,3,-16,-31
32.14502811431885,true,0.5546875,0.14355469,0.53125,-0.8954141,-0.18383119,0.14355469,0.53125,-9,19,1,-7,14,1,5,12
32.14632606506348,true,0.6020508,0.07861328,0.52734375,-0.8859654,-0.17229818,0.07861328,0.52734375,16,5,-1,1,7,-3,2,11
32.174387097358704,true,0.68847656,0.03515625,0.39453125,-0.8671631,-0.15008123,0.03515625,0.39453125,44,-13,-7,-6,2,-4,-6,8
32.204116106033325,true,0.7651367,-0.022949219,0.32666016,-0.8585135,-0.1400135,-0.022949219,0.32666016,0,-11,7,7,-7,-5,5,8
32.20595610141754,true,0.74658203,-0.123535156,0.23828125,-0.8500933,-0.1290887,-0.123535156,0.23828125,-23,-20,-4,-3,5,0,-17,-17
32.23792505264282,true,0.7163086,-0.18115234,0.18164062,-0.8431344,-0.11920092,-0.18115234,0.18164062,11,127,-3,5,8,0,16,10
32.26327610015869,true,0.69140625,-0.2607422,0.09033203,-0.8380356,-0.10760008,-0.2607422,0.09033203,7,71,4,-5,-20,0,-3,5
32.264987111091614,true,0.7128906,-0.38623047,-0.00048828125,-0.83532006,-0.094237484,-0.38623047,-0.00048828125,-3,-25,4,2,-10,-8,-1,9
32.293665051460266,true,0.7709961,-0.45214844,-0.030273438,-0.83555734,-0.08276229,-0.45214844,-0.030273438,-17,-1,-3,3,-4,8,0,0
32.323334097862244,true,0.80322266,-0.4970703,-0.0859375,-0.8390226,-0.07342287,-0.4970703,-0.0859375,-2,-1,2,5,-8,4,7,0
32.32543909549713,true,0.84716797,-0.5966797,-0.1352539,-0.8462486,-0.06530732,-0.5966797,-0.1352539,-1,-31,-7,-9,-8,-4,-4,-4
32.35396111011505,true,0.84814453,-0.68359375,-0.14697266,-0.8612126,-0.06341601,-0.68359375,-0.14697266,9,-38,-15,-6,-10,0,6,5
32.41435205936432,true,0.8442383,-0.68603516,-0.025390625,-0.8798255,-0.06597928,-0.68603516,-0.025390625,-20,-26,0,-6,-11,10,4,14
32.416256070137024,true,0.8046875,-0.56640625,0.23242188,-0.90009564,-0.07232748,-0.56640625,0.23242188,27,35,7,-1,18,6,-7,-55
32.41843807697296,true,0.6748047,-0.47802734,0.54003906,-0.92001563,-0.079526365,-0.47802734,0.54003906,-69,-84,-54,-15,-23,-38,12,-7
32.44432306289673,true,0.59375,-0.5566406,0.8823242,-0.93836427,-0.090205036,-0.5566406,0.8823242,23,66,12,-2,-16,-46,3,23
32.446211099624634,true,0.5839844,-0.37695312,1.0932617,-0.95174855,-0.118892275,-0.37695312,1.0932617,-8,62,2,1,24,-11,28,127
32.47437810897827,true,0.33691406,-0.5942383,0.9296875,-0.95708704,-0.1582633,-0.5942383,0.9296875,127,-57,-9,-5,-12,0,23,-60
32.50409007072449,true,-0.17822266,0.6323242,0.25927734,-0.9506724,-0.2323581,0.6323242,0.25927734,-30,-67,28,-15,-29,-50,-8,10
32.505720019340515,true,-1.6733398,2.7167969,0.8334961,-0.9309964,-0.31950742,2.7167969,0.8334961,75,127,-4,-3,37,117,-13,36
32.534441113471985,true,-1.7890625,2.586914,1.237793,-0.93415356,-0.3207224,2.586914,1.237793,-7,113,-3,9,1,48,10,-13
32.56406605243683,true,-0.59716797,1.2636719,1.3261719,-0.95156837,-0.27043805,1.2636719,1.3261719,29,-128,5,10,-17,-128,-14,17
32.565757036209106,true,0.5678711,0.56152344,1.0209961,-0.962165,-0.22941822,0.56152344,1.0209961,-113,-128,2,6,-5,97,-12,17
32.594614028930664,true,0.62841797,0.34277344,1.1323242,-0.9678564,-0.2050088,0.34277344,1.1323242,39,125,9,4,14,-75,-7,-8
32.62385106086731,true,0.27490234,-0.07470703,1.1733398,-0.9692324,-0.19714236,-0.07470703,1.1733398,-6,-16,4,4,-10,37,0,3
32.62670302391052,true,0.09863281,0.3203125,1.0170898,-0.9653703,-0.2121532,0.3203125,1.0170898,-19,-26,-5,-4,-7,8,3,5
32.65440106391907,true,0.11035156,0.53808594,0.8930664,-0.9625688,-0.22356792,0.53808594,0.8930664,6,37,3,3,9,-14,-1,1
32.68402707576752,true,0.08984375,0.49365234,0.86035156,-0.9626754,-0.22246572,0.49365234,0.86035156,3,-24,-4,-1,9,-14,-2,-2
32.68593406677246,true,0.11767578,0.40576172,0.82666016,-0.96461225,-0.21233065,0.40576172,0.82666016,27,-12,0,-4,6,-4,-9,-10
32.71427500247955,true,0.122558594,0.30419922,0.8129883,-0.96725243,-0.19896787,0.30419922,0.8129883,-14,13,5,2,3,-1,-1,-4
32.74392509460449,true,0.10498047,0.25439453,0.82373047,-0.96941733,-0.1881706,0.25439453,0.82373047,-4,-7,0,-2,3,-1,3,-1
32.74573302268982,true,0.14697266,0.2421875,0.79345703,-0.9708372,-0.18108216,0.2421875,0.79345703,-25,13,0,-1,-7,-4,4,7
32.774346113204956,true,0.18017578,0.2685547,0.7597656,-0.9718939,-0.17656928,0.2685547,0.7597656,37,7,0,-1,9,-2,-3,-4
32.80467903614044,true,0.17236328,0.3076172,0.71777344,-0.97280943,-0.17394485,0.3076172,0.71777344,16,-6,0,-3,-1,-1,-3,-4
32.80712103843689,true,0.1459961,0.31835938,0.69091797,-0.9738999,-0.17192931,0.31835938,0.69091797,-17,5,0,1,0,2,-1,0
32.83497905731201,true,0.12207031,0.31445312,0.67529297,-0.9751132,-0.17082945,0.31445312,0.67529297,-18,-9,1,6,-6,-2,0,-4
32.863893032073975,true,0.10449219,0.32470703,0.6542969,-0.9763101,-0.17114113,0.32470703,0.6542969,5,-5,-1,-3,-3,-7,1,1
32.86627006530762,true,0.09765625,0.31396484,0.6308594,-0.9776378,-0.17156573,0.31396484,0.6308594,2,-3,-3,-4,0,4,0,-1
32.89489006996155,true,0.09082031,0.2998047,0.6308594,-0.97905046,-0.17211659,0.2998047,0.6308594,-1,0,-3,-1,-3,-2,-3,2
32.95449209213257,false,0.06689453,0.28125,0.6166992,-0.98028505,-0.1732787,0.28125,0.6166992,-1,-3,0,0,-2,-4,-1,0
32.956179022789,false,0.027832031,0.30419922,0.62109375,-0.9810971,-0.17540735,0.30419922,0.62109375,-3,5,1,-2,-2,1,2,1
32.958272099494934,false,-0.0146484375,0.33203125,0.59277344,-0.98166806,-0.17602155,0.33203125,0.59277344,-2,0,0,0,-1,1,-2,-2
32.98441302776337,false,-0.024902344,0.32470703,0.56884766,-0.98213303,-0.17272162,0.32470703,0.56884766,-12,3,0,-3,-3,-4,-3,-6
32.986555099487305,false,-0.052246094,0.2529297,0.57958984,-0.98204184,-0.16595225,0.2529297,0.57958984,-11,17,2,2,0,3,0,-3
33.01483106613159,false,-0.123535156,0.14746094,0.6459961,-0.9807413,-0.15722133,0.14746094,0.6459961,3,-4,-1,0,-1,1,-3,2
33.04460799694061,false,-0.2241211,0.15234375,0.7558594,-0.97725135,-0.15032288,0.15234375,0.7558594,-4,-13,3,0,-9,-2,0,0
33.04639506340027,false,-0.31591797,0.15332031,0.7573242,-0.9716625,-0.14422353,0.15332031,0.7573242,-1,0,-1,-1,4,-2,-1,-1
33.074968099594116,false,-0.38378906,0.09033203,0.7011719,-0.9639556,-0.13726327,0.09033203,0.7011719,4,-8,-1,-1,-3,2,-2,-3
