time,gesture,ax,ay,az,qw,qx,qy,qz,e0,e1,e2,e3,e4,e5,e6,e7
39.48308491706848,false,-0.3852539,0.27001953,0.9169922,0.7221873,0.23639548,0.27001953,0.9169922,-3,-1,-3,2,1,0,2,2
39.48466992378235,false,-0.3642578,0.30371094,0.91503906,0.72182024,0.2368835,0.30371094,0.91503906,1,2,2,2,-2,-2,2,-1
39.48529398441315,false,-0.34326172,0.33642578,0.9013672,0.7217587,0.2373106,0.33642578,0.9013672,-5,-5,-2,1,-1,-1,1,0
39.4869669675827,false,-0.3544922,0.31884766,0.9238281,0.72175765,0.23731026,0.31884766,0.9238281,1,4,-1,-1,0,2,-5,-2
39.48832190036774,false,-0.34765625,0.30419922,0.9086914,0.72186434,0.23700002,0.30419922,0.9086914,-9,0,-3,-2,0,-2,-5,-5
39.48957598209381,false,-0.35839844,0.28808594,0.9243164,0.72194695,0.23664089,0.28808594,0.9243164,3,-2,1,0,1,1,2,0
39.490415930747986,false,-0.36279297,0.30664062,0.9145508,0.7217488,0.23694113,0.30664062,0.9145508,0,0,-4,1,-1,1,-1,-3
39.491539001464844,false,-0.36279297,0.31396484,0.9135742,0.72161996,0.23718303,0.31396484,0.9135742,4,1,-1,-12,-4,-2,2,3
39.506929993629456,false,-0.37402344,0.29492188,0.93310547,0.7214336,0.23730403,0.29492188,0.93310547,-4,-1,4,7,5,0,1,0
39.53719198703766,false,-0.36523438,0.28710938,0.92285156,0.7208573,0.23804772,0.28710938,0.92285156,-5,-6,-3,4,2,0,2,-2
39.53882694244385,false,-0.359375,0.3149414,0.9194336,0.7202269,0.23913974,0.3149414,0.9194336,2,0,-2,-1,1,0,-3,2
39.56771194934845,false,-0.35888672,0.32763672,0.9404297,0.7193612,0.24078397,0.32763672,0.9404297,-1,-2,16,-7,-5,-2,-3,-2
39.59687399864197,false,-0.36328125,0.2915039,0.8989258,0.71833235,0.24261798,0.2915039,0.8989258,3,8,12,0,-2,1,0,1
39.59859597682953,false,-0.36816406,0.32080078,0.88134766,0.7174781,0.24457122,0.32080078,0.88134766,0,-7,-14,-5,-3,-7,-1,0
39.62712800502777,false,-0.35595703,0.359375,0.87890625,0.71715444,0.24578561,0.359375,0.87890625,-3,0,-7,1,0,-2,0,-4
39.65700900554657,false,-0.35986328,0.35546875,0.89746094,0.7172279,0.24621712,0.35546875,0.89746094,-3,-7,-4,-6,2,2,2,-3
39.65869700908661,false,-0.36328125,0.34765625,0.9296875,0.7173358,0.24627331,0.34765625,0.9296875,3,0,-5,-4,0,-5,-9,-2
39.71777296066284,false,-0.33935547,0.36816406,0.9199219,0.7173364,0.2462735,0.36816406,0.9199219,3,0,2,3,-4,-1,1,-6
39.71986699104309,false,-0.33984375,0.36279297,0.9238281,0.7175306,0.24548383,0.36279297,0.9238281,4,0,0,4,-4,-3,-3,5
39.74714398384094,false,-0.3540039,0.34179688,0.91064453,0.7176626,0.243412,0.34179688,0.91064453,-3,1,-4,-2,0,0,1,-5
39.77666795253754,false,-0.3647461,0.31933594,0.9160156,0.7179621,0.2418842,0.31933594,0.9160156,2,-2,-6,4,-2,6,-2,-6
39.77873396873474,false,-0.36376953,0.29589844,0.91845703,0.7182062,0.24011417,0.29589844,0.91845703,-5,-1,0,2,0,4,1,-3
39.80708992481232,false,-0.36572266,0.28759766,0.9121094,0.718405,0.23859347,0.28759766,0.9121094,2,-1,-4,-2,-2,-5,0,-3
39.83721697330475,false,-0.3696289,0.29638672,0.94140625,0.71858925,0.23712896,0.29638672,0.94140625,1,3,0,-2,-1,27,22,-7
39.83890700340271,false,-0.34960938,0.3256836,0.92041016,0.7186287,0.23620631,0.3256836,0.92041016,1,-1,3,0,1,-9,-1,4
39.86721098423004,false,-0.3544922,0.32226562,0.9291992,0.7187962,0.23473637,0.32226562,0.9291992,-1,-3,-5,-3,-2,-9,-10,2
39.896992921829224,false,-0.35791016,0.28710938,0.9160156,0.71900004,0.23272896,0.28710938,0.9160156,-9,-5,1,-4,1,-12,-11,-2
39.89858794212341,false,-0.3779297,0.27978516,0.93408203,0.7191722,0.23083334,0.27978516,0.93408203,2,-2,0,-4,-2,1,-2,1
39.92727291584015,false,-0.36816406,0.26513672,0.95166016,0.7192494,0.22851917,0.26513672,0.95166016,0,1,0,-1,-3,-7,-3,0
39.95687699317932,false,-0.37890625,0.25048828,0.9428711,0.7192395,0.2264408,0.25048828,0.9428711,7,7,10,0,3,3,3,0
39.9587779045105,false,-0.37695312,0.23535156,0.9482422,0.7191017,0.22448277,0.23535156,0.9482422,-4,-1,-3,7,2,-5,-4,1
39.987228989601135,false,-0.40576172,0.2397461,0.9536133,0.7188781,0.22326846,0.2397461,0.9536133,6,-1,-16,-8,-4,-4,-2,-3
40.016952991485596,false,-0.39892578,0.17089844,0.97558594,0.718265,0.22247416,0.17089844,0.97558594,0,0,7,-3,2,2,-1,1
40.01880598068237,false,-0.40283203,0.16308594,0.9589844,0.71633273,0.22541043,0.16308594,0.9589844,0,-2,2,2,3,3,-3,-4
40.04714596271515,false,-0.43554688,0.25,0.8964844,0.7143163,0.2302927,0.25,0.8964844,0,0,2,-4,3,3,3,0
40.076894998550415,false,-0.43408203,0.25341797,0.8466797,0.71297204,0.23291682,0.25341797,0.8466797,-2,-1,-1,-7,3,5,3,0
40.07865798473358,false,-0.45507812,0.31347656,0.84472656,0.71229947,0.23401509,0.31347656,0.84472656,3,1,6,-1,-9,-10,-3,2
40.10831689834595,false,-0.48291016,0.28125,0.8676758,0.713183,0.23235665,0.28125,0.8676758,-6,-5,-1,-7,-11,-7,-2,0
40.13707792758942,false,-0.52197266,0.19482422,0.88671875,0.7149833,0.22882639,0.19482422,0.88671875,0,-3,-7,1,5,2,-1,-1
40.138561964035034,false,-0.49609375,0.24023438,0.91845703,0.7169359,0.22711718,0.24023438,0.91845703,0,-1,-2,1,0,1,-4,-1
40.16758394241333,false,-0.49951172,0.35205078,0.94189453,0.7198524,0.22754025,0.35205078,0.94189453,-4,0,-5,2,-3,-1,-4,0
40.19709897041321,false,-0.47265625,0.41308594,0.96533203,0.72412956,0.22766379,0.41308594,0.96533203,-4,-2,-7,-2,-1,-3,2,-2
40.19885492324829,false,-0.4794922,0.41503906,0.9711914,0.72974384,0.2266869,0.41503906,0.9711914,2,1,-1,2,-2,-2,1,-2
40.227659940719604,false,-0.50439453,0.3930664,0.9707031,0.73621684,0.22497888,0.3930664,0.9707031,-1,0,-8,1,-1,-2,0,1
40.25719690322876,false,-0.49365234,0.35498047,0.9160156,0.7436004,0.22326934,0.35498047,0.9160156,-1,0,5,4,0,1,0,1
40.25946295261383,false,-0.4345703,0.34423828,0.86279297,0.7517353,0.2227251,0.34423828,0.86279297,0,1,0,2,4,0,-4,-1
40.28716993331909,false,-0.40234375,0.3935547,0.85546875,0.7601935,0.22314471,0.3935547,0.85546875,0,0,3,0,-9,-1,1,2
40.31701898574829,false,-0.43896484,0.4741211,0.8720703,0.7689294,0.22406255,0.4741211,0.8720703,-5,-2,4,2,0,-3,3,2
40.3188658952713,false,-0.44921875,0.5234375,0.8730469,0.7791395,0.22187012,0.5234375,0.8730469,-1,-3,-1,1,3,2,0,-1
40.34705197811127,false,-0.37939453,0.4819336,0.86328125,0.79033804,0.21783276,0.4819336,0.86328125,3,1,-3,-1,0,2,-2,-5
40.40686595439911,false,-0.26220703,0.45507812,0.86572266,0.80183226,0.21362661,0.45507812,0.86572266,1,-2,-1,-2,-4,0,-1,0
40.4087849855423,false,-0.19824219,0.43701172,0.84472656,0.81303465,0.2109337,0.43701172,0.84472656,0,-3,-2,-3,1,-3,1,0
40.410961985588074,false,-0.1850586,0.41601562,0.8466797,0.8239837,0.20837633,0.41601562,0.8466797,-2,-2,-1,-3,1,0,1,-4
40.43718993663788,false,-0.19628906,0.42773438,0.8847656,0.8342955,0.20544581,0.42773438,0.8847656,-4,0,-2,-3,1,1,-4,-2
40.43930995464325,false,-0.17333984,0.37304688,0.89746094,0.8445097,0.20166667,0.37304688,0.89746094,4,4,-2,-2,-3,-2,1,1
40.46706295013428,false,-0.12451172,0.35351562,0.9316406,0.85394084,0.19866896,0.35351562,0.9316406,-2,-2,-4,2,9,-1,-4,1
40.4971649646759,false,-0.083984375,0.32421875,0.9082031,0.8625937,0.19713986,0.32421875,0.9082031,-2,0,-5,0,1,-1,1,-2
40.49930989742279,false,-0.07324219,0.29589844,0.87109375,0.8704978,0.19647542,0.29589844,0.87109375,-3,-2,3,0,-2,0,0,-1
40.52706694602966,false,-0.08251953,0.27001953,0.86083984,0.87758535,0.19647707,0.27001953,0.86083984,-1,-6,-4,0,-5,1,-1,-2
40.55751597881317,false,-0.08300781,0.26416016,0.8774414,0.88369375,0.19806507,0.26416016,0.8774414,2,2,4,-2,5,-1,0,0
40.55965292453766,false,-0.07373047,0.3173828,0.84814453,0.8889123,0.20098794,0.3173828,0.84814453,-1,1,-3,3,-7,-3,-2,3
40.58718693256378,false,-0.08251953,0.34277344,0.8544922,0.89375347,0.20416617,0.34277344,0.8544922,0,-1,3,0,1,-1,-1,-3
40.61703300476074,false,-0.11816406,0.31103516,0.8647461,0.89853066,0.20606206,0.31103516,0.8647461,-3,-2,-2,-4,1,1,-1,-3
40.61935198307037,false,-0.14208984,0.2319336,0.8930664,0.9028383,0.20721579,0.2319336,0.8930664,-3,-4,-3,-2,-3,-3,-1,1
40.64712595939636,false,-0.14550781,0.23144531,0.9199219,0.90610987,0.2099709,0.23144531,0.9199219,1,-4,-8,-4,-4,-2,-3,-1
40.67705500125885,false,-0.13916016,0.25585938,0.9008789,0.9082815,0.21564132,0.25585938,0.9008789,-3,-2,-10,-4,-2,3,0,0
40.67927598953247,false,-0.1586914,0.33154297,0.8828125,0.9092582,0.22443058,0.33154297,0.8828125,3,2,0,2,0,0,1,-1
40.706984996795654,false,-0.18896484,0.35742188,0.9194336,0.9097551,0.2338324,0.35742188,0.9194336,-1,1,5,-3,3,-2,-3,-2
40.73731791973114,false,-0.21728516,0.34277344,0.9277344,0.9100756,0.24201542,0.34277344,0.9277344,0,2,7,-1,-5,0,1,-1
40.73912000656128,false,-0.22607422,0.37304688,0.9291992,0.9097161,0.25056258,0.37304688,0.9291992,0,-1,2,1,-2,1,0,-1
40.76718199253082,false,-0.25195312,0.3935547,0.9291992,0.9085844,0.25995305,0.3935547,0.9291992,0,-4,4,4,-2,-1,-4,0
40.79796290397644,false,-0.27294922,0.35498047,0.92578125,0.9073546,0.26800713,0.35498047,0.92578125,-3,-4,-4,-3,-1,0,-1,4
40.79990100860596,false,-0.26416016,0.3720703,0.9404297,0.9058099,0.2753257,0.3720703,0.9404297,-3,1,-3,-3,0,-2,0,-2
40.82708692550659,false,-0.2861328,0.43554688,0.93896484,0.90378386,0.28278723,0.43554688,0.93896484,-2,3,-3,3,-1,-5,-3,-2
40.857056975364685,false,-0.30810547,0.45898438,0.9301758,0.90174395,0.28924897,0.45898438,0.9301758,2,1,-3,-3,-1,3,1,1
40.859386920928955,false,-0.33251953,0.4296875,0.9746094,0.9003666,0.29285872,0.4296875,0.9746094,-1,-2,-1,1,1,2,1,-3
40.88733792304993,false,-0.32226562,0.40576172,0.98535156,0.89954644,0.2938266,0.40576172,0.98535156,0,-2,2,-3,0,-1,-1,-1
40.91720700263977,false,-0.32714844,0.4038086,1.0136719,0.89853495,0.2946897,0.4038086,1.0136719,2,1,-11,1,0,-1,0,-3
40.91919195652008,false,-0.33740234,0.40576172,1.034668,0.89743286,0.2952379,0.40576172,1.034668,-3,-2,0,0,2,1,1,2
40.947057008743286,false,-0.34033203,0.40771484,1.0332031,0.896379,0.29541564,0.40771484,1.0332031,-1,-7,-3,-2,-3,0,0,-1
40.977168917655945,false,-0.31591797,0.3701172,1.0219727,0.8952245,0.2951122,0.3701172,1.0219727,-3,3,3,1,-2,-3,1,2
40.97936797142029,false,-0.3227539,0.3857422,1.0634766,0.8942408,0.2935229,0.3857422,1.0634766,1,-2,1,0,-5,-3,-1,-5
41.007534980773926,false,-0.30029297,0.43017578,1.0849609,0.89330244,0.2915623,0.43017578,1.0849609,-3,-2,0,-1,-2,0,-1,3
41.03790998458862,false,-0.29785156,0.44726562,1.0927734,0.89261705,0.28822058,0.44726562,1.0927734,-1,0,-1,-4,0,3,-2,-2
41.040082931518555,false,-0.28564453,0.35205078,1.0356445,0.89216524,0.28351286,0.35205078,1.0356445,-3,-1,1,1,-4,-3,-1,2
41.067171931266785,false,-0.25878906,0.32080078,0.99072266,0.8912251,0.27937382,0.32080078,0.99072266,0,-1,0,0,-2,0,1,1
41.09706497192383,false,-0.24072266,0.3515625,0.9765625,0.8896059,0.27661708,0.3515625,0.9765625,-1,-1,1,-3,-3,-1,-2,-4
41.0992329120636,false,-0.25048828,0.42919922,0.94921875,0.887689,0.27436993,0.42919922,0.94921875,0,-1,-1,-3,3,-1,-2,0
41.12818491458893,false,-0.25927734,0.45166016,0.9453125,0.8862116,0.2700934,0.45166016,0.9453125,2,-1,-4,-4,2,1,-2,1
41.1572949886322,false,-0.24902344,0.4375,0.91015625,0.88515306,0.2634951,0.4375,0.91015625,-3,-2,0,-3,-8,-1,0,1
41.15936899185181,false,-0.22509766,0.3955078,0.86572266,0.8840098,0.25587025,0.3955078,0.86572266,0,-2,-2,-5,-2,-2,-2,1
41.187320947647095,false,-0.20605469,0.38671875,0.8300781,0.8823377,0.24933241,0.38671875,0.8300781,-1,-1,3,-3,0,-3,0,-1
41.21722900867462,false,-0.19091797,0.38720703,0.8149414,0.8801369,0.24389924,0.38720703,0.8149414,3,3,-4,-1,3,0,-2,-2
41.21961200237274,false,-0.20263672,0.4111328,0.80810547,0.8775708,0.23913774,0.4111328,0.80810547,-1,2,0,1,-2,0,1,1
41.24716794490814,false,-0.20800781,0.41503906,0.7788086,0.8750321,0.233407,0.41503906,0.7788086,0,0,2,-1,-2,2,-1,-4
41.27832889556885,false,-0.19726562,0.41357422,0.7729492,0.8723915,0.22668873,0.41357422,0.7729492,-2,-1,-3,-1,0,-1,1,-1
41.279955983161926,false,-0.21679688,0.3857422,0.8041992,0.8690999,0.22101347,0.3857422,0.8041992,-3,-6,-5,-3,0,-4,-1,-1
41.30698490142822,false,-0.24267578,0.37597656,0.8491211,0.8650066,0.2183269,0.37597656,0.8491211,-1,-1,-5,1,-5,-3,-3,2
41.337461948394775,false,-0.2607422,0.3857422,0.83691406,0.86013174,0.22016002,0.3857422,0.83691406,2,2,1,-1,2,0,0,3
41.3394079208374,false,-0.29101562,0.45898438,0.8173828,0.85476637,0.22583802,0.45898438,0.8173828,-1,-3,1,2,-5,0,-2,1
41.36707091331482,false,-0.29003906,0.5258789,0.78271484,0.8494989,0.23376785,0.5258789,0.78271484,-1,-2,-2,-2,1,-3,-3,-1
41.39738190174103,false,-0.30908203,0.58447266,0.8276367,0.8448076,0.2421322,0.58447266,0.8276367,0,-2,-3,-2,1,3,1,-3
41.39926493167877,false,-0.33251953,0.7192383,0.83496094,0.8409769,0.25086477,0.7192383,0.83496094,-2,0,0,3,-1,2,3,1
41.42707693576813,false,-0.29736328,0.7089844,0.83984375,0.83930916,0.25531453,0.7089844,0.83984375,-4,2,1,2,-1,-4,1,-2
41.45709800720215,false,-0.26513672,0.56640625,0.8378906,0.8394031,0.25453106,0.56640625,0.8378906,3,-1,-1,-4,-2,-1,-4,-1
41.45934498310089,false,-0.24560547,0.41601562,0.8354492,0.83992803,0.2526315,0.41601562,0.8354492,3,-2,-11,3,1,-4,-1,-3
41.48736298084259,false,-0.23339844,0.37158203,0.8540039,0.8397121,0.25372025,0.37158203,0.8540039,-9,-1,1,-2,3,-6,-2,-1
41.51742398738861,false,-0.24853516,0.42773438,0.87353516,0.83861095,0.258175,0.42773438,0.87353516,1,-2,-1,-3,-2,1,0,-1
41.576907992362976,false,-0.25830078,0.47851562,0.8647461,0.8374585,0.26324308,0.47851562,0.8647461,0,-1,0,1,2,-2,-1,2
41.57879996299744,false,-0.24511719,0.5,0.86083984,0.8366304,0.26752397,0.5,0.86083984,0,0,2,-2,-1,3,0,2
41.58099400997162,false,-0.2578125,0.4873047,0.87402344,0.8361939,0.27051178,0.4873047,0.87402344,2,-3,4,-1,-1,-1,0,-4
41.607454895973206,false,-0.25634766,0.43066406,0.89990234,0.83602434,0.27594846,0.43066406,0.89990234,1,-1,-1,-4,1,-2,-2,-2
41.637799978256226,false,-0.24902344,0.41748047,0.9243164,0.83588433,0.27972674,0.41748047,0.9243164,-4,0,1,-2,2,1,0,0
41.63991296291351,false,-0.27392578,0.44384766,0.95214844,0.8351794,0.28553453,0.44384766,0.95214844,0,-6,0,0,-3,0,2,-2
41.66760194301605,false,-0.2861328,0.48388672,0.98876953,0.83420885,0.2917625,0.48388672,0.98876953,0,-2,0,-1,-5,-3,0,3
41.697479009628296,false,-0.3071289,0.46191406,1.0131836,0.8326919,0.29888532,0.46191406,1.0131836,0,8,-23,1,0,1,0,-1
41.7282429933548,false,-0.296875,0.46923828,1.0,0.8307619,0.30634,0.46923828,1.0,-3,-17,1,-1,-3,-3,-1,1
41.73071992397308,false,-0.29101562,0.54248047,1.0258789,0.8282611,0.3147026,0.54248047,1.0258789,15,14,9,-15,7,1,-1,-2
41.75722301006317,false,-0.32373047,0.62939453,1.059082,0.8256878,0.32257244,0.62939453,1.059082,9,-59,14,-78,0,1,0,-3
41.759297013282776,false,-0.31982422,0.6489258,1.0810547,0.82362854,0.3282551,0.6489258,1.0810547,-20,62,-8,5,-3,-2,2,3
41.787290930747986,false,-0.3149414,0.66845703,1.0986328,0.82204264,0.3316736,0.66845703,1.0986328,-48,29,3,-3,-1,-1,-6,-6
41.81732797622681,false,-0.2919922,0.71191406,1.0908203,0.82094723,0.33307874,0.71191406,1.0908203,113,21,0,22,-2,-1,0,0
41.8197979927063,false,-0.2709961,0.7578125,1.0952148,0.8204297,0.33245653,0.7578125,1.0952148,-48,-32,-4,14,-4,-4,1,5
41.847885966300964,false,-0.2548828,0.7895508,1.0703125,0.820822,0.32880488,0.7895508,1.0703125,-10,-4,3,9,3,-2,-2,-2
41.87703990936279,false,-0.21728516,0.80859375,1.0400391,0.8223807,0.3215305,0.80859375,1.0400391,-33,-12,-4,4,-12,-3,2,3
41.879637002944946,false,-0.16796875,0.82714844,1.0117188,0.8248476,0.31085902,0.82714844,1.0117188,-32,-16,-2,-4,1,-5,-1,-1
41.90779793262482,false,-0.13623047,0.85058594,0.95458984,0.828078,0.29694107,0.85058594,0.95458984,9,-21,-10,-4,-4,1,-3,-3
41.93735098838806,false,-0.11669922,0.86328125,0.9091797,0.8317385,0.28088796,0.86328125,0.9091797,-2,14,3,0,-8,2,-2,3
41.93989598751068,false,-0.10253906,0.82470703,0.8457031,0.83590347,0.2628869,0.82470703,0.8457031,127,8,17,-10,11,8,-4,16
41.96816897392273,false,-0.03466797,0.7578125,0.7939453,0.8406463,0.24237323,0.7578125,0.7939453,-123,-12,-23,8,2,-17,2,5
42.026994943618774,false,0.052246094,0.70166016,0.80029297,0.84505653,0.22052649,0.70166016,0.80029297,-86,1,-3,1,8,0,0,-5
42.02872395515442,false,0.103515625,0.70166016,0.7338867,0.8485657,0.19824077,0.70166016,0.7338867,14,-2,-6,-3,-13,0,-2,1
42.030972957611084,false,0.15039062,0.6826172,0.6748047,0.8515883,0.17560346,0.6826172,0.6748047,33,3,0,-1,3,2,0,-6
42.057583928108215,false,0.16601562,0.67529297,0.6118164,0.85455376,0.15100107,0.67529297,0.6118164,19,3,0,0,14,0,2,-6
42.06033992767334,false,0.17626953,0.63720703,0.60791016,0.856934,0.124816954,0.63720703,0.60791016,9,0,-4,6,-9,1,-3,-10
42.08793890476227,false,0.24267578,0.5527344,0.55859375,0.8588939,0.09704671,0.5527344,0.55859375,2,-2,5,-7,-8,0,-5,-10
42.11729598045349,false,0.3173828,0.42382812,0.50634766,0.86044747,0.068606295,0.42382812,0.50634766,0,-2,1,3,3,-7,-2,4
42.119820952415466,false,0.4091797,0.37158203,0.46240234,0.86128616,0.041138608,0.37158203,0.46240234,3,6,9,-2,-12,0,4,7
42.148138999938965,false,0.46972656,0.328125,0.4013672,0.8620228,0.016907196,0.328125,0.4013672,13,-14,-18,-2,0,0,-3,-5
42.177679896354675,true,0.4946289,0.2788086,0.43603516,0.8634624,-0.008056622,0.2788086,0.43603516,-17,6,1,1,-2,4,2,0
42.180083990097046,true,0.46875,0.19970703,0.40039062,0.8642934,-0.034605913,0.19970703,0.40039062,7,13,5,0,-3,0,3,2
42.20782196521759,true,0.5834961,0.0107421875,0.32226562,0.8642046,-0.062988855,0.0107421875,0.32226562,6,3,15,0,2,3,-2,-2
42.23812794685364,true,0.6777344,-0.22607422,0.23535156,0.86383355,-0.090332344,-0.22607422,0.23535156,-2,-9,-6,-4,3,-4,1,1
42.24021792411804,true,0.7441406,-0.33398438,0.18945312,0.8636306,-0.11242456,-0.33398438,0.18945312,-2,16,-12,-4,-5,-1,2,-3
42.268077969551086,true,0.69189453,-0.43359375,0.2944336,0.8639825,-0.13190153,-0.43359375,0.2944336,-2,-12,0,-1,-4,0,-3,2
42.296846985816956,true,0.6538086,-0.45654297,0.33154297,0.8646801,-0.14569008,-0.45654297,0.33154297,-1,-9,-5,-1,-1,-1,-5,-5
42.29946792125702,true,0.6352539,-0.3935547,0.41259766,0.865302,-0.15405391,-0.3935547,0.41259766,0,-2,-3,1,2,-1,0,2
42.32791793346405,true,0.63378906,-0.3388672,0.44140625,0.865605,-0.15771565,-0.3388672,0.44140625,1,-7,6,2,1,7,0,5
42.35712289810181,true,0.65966797,-0.3779297,0.453125,0.86548674,-0.1591812,-0.3779297,0.453125,1,-6,-5,-1,-1,-2,-2,-2
42.35975193977356,true,0.71435547,-0.49560547,0.43652344,0.86528426,-0.15820108,-0.49560547,0.43652344,0,-1,3,1,-3,-3,-2,-4
42.38783395290375,true,0.78271484,-0.5498047,0.4140625,0.865582,-0.15050946,-0.5498047,0.4140625,1,-3,-5,-4,-3,0,0,-2
42.477335929870605,true,0.7915039,-0.4946289,0.3857422,0.86670446,-0.12927325,-0.4946289,0.3857422,-2,6,2,5,1,-1,7,3
42.47951793670654,true,0.7807617,-0.4091797,0.34521484,0.8676987,-0.10040549,-0.4091797,0.34521484,-4,-1,0,-6,-3,-1,3,1
42.50804591178894,true,0.1015625,0.46289062,1.2231445,0.85700065,0.09649726,0.46289062,1.2231445,12,-14,6,12,-9,5,34,62
42.5368869304657,true,0.1352539,0.80126953,1.4438477,0.8394217,0.16040139,0.80126953,1.4438477,-1,9,4,7,-106,0,-18,-24
42.53939890861511,true,0.5629883,-0.12939453,-0.118652344,0.8211373,0.21149488,-0.12939453,-0.118652344,90,10,-1,-26,117,4,8,12
42.56760799884796,true,-0.21533203,1.2841797,0.32958984,0.79652065,0.27887377,1.2841797,0.32958984,-38,21,11,-4,-76,-13,-10,-64
42.59700393676758,true,-1.2421875,2.7890625,0.15966797,0.77673906,0.3280053,2.7890625,0.15966797,-128,-115,-50,-87,18,-28,-27,99
42.59946000576019,true,-0.6821289,2.6132812,0.5698242,0.78219706,0.31342816,2.6132812,0.5698242,-14,66,-5,25,37,-7,-20,-5
42.62828493118286,true,0.026367188,1.1538086,0.67285156,0.79279786,0.28516063,1.1538086,0.67285156,-12,-32,17,28,-38,12,4,-76
42.65847396850586,true,0.56396484,0.4321289,0.71240234,0.80104613,0.26428905,0.4321289,0.71240234,-13,25,-4,21,34,6,-4,-53
42.67908596992493,true,0.64453125,0.5463867,0.84228516,0.8010337,0.25964624,0.5463867,0.84228516,18,2,0,3,6,-7,-12,-3
42.70643401145935,true,0.14648438,0.8129883,0.7871094,0.79835415,0.2682543,0.8129883,0.7871094,7,-1,-3,-1,0,-7,-8,-20
42.71877598762512,true,0.1538086,0.9614258,0.72314453,0.79504037,0.27514523,0.9614258,0.72314453,21,8,0,0,-5,0,-12,-11
42.72161400318146,true,0.20751953,0.90185547,0.7036133,0.7938703,0.2752637,0.90185547,0.7036133,13,3,9,4,6,7,0,-1
42.74805295467377,true,0.2290039,0.7583008,0.7290039,0.79486054,0.27111807,0.7583008,0.7290039,-1,-5,15,-4,5,4,7,2
42.7782039642334,true,0.16894531,0.7421875,0.70947266,0.7949942,0.2692299,0.7421875,0.70947266,4,4,-9,2,7,-2,-8,-9
42.780231952667236,true,0.122558594,0.7661133,0.7138672,0.79507095,0.2683807,0.7661133,0.7138672,2,6,-3,3,1,1,0,2
42.808138966560364,true,0.110839844,0.77001953,0.7001953,0.795048,0.26721328,0.77001953,0.7001953,3,-3,-7,6,-1,-1,2,-1
42.83856797218323,true,0.11376953,0.75390625,0.66064453,0.79511225,0.2657495,0.75390625,0.66064453,1,0,-8,0,0,-1,-2,1
42.83998095989227,true,0.10839844,0.7626953,0.67578125,0.7956059,0.26404226,0.7626953,0.67578125,3,-3,4,-3,-3,2,2,2
42.867902994155884,true,0.10839844,0.7675781,0.6791992,0.7963246,0.2617184,0.7675781,0.6791992,0,0,2,-2,-2,-1,-3,7
42.92736101150513,true,0.13183594,0.7807617,0.69677734,0.7972375,0.25921512,0.7807617,0.69677734,5,2,5,0,1,1,-3,1
42.92930996417999,false,0.15185547,0.7885742,0.6899414,0.79833454,0.25616285,0.7885742,0.6899414,-2,-1,1,-5,-1,-1,-3,-7
42.95730197429657,false,0.111816406,0.8334961,0.70751953,0.80044776,0.25135306,0.8334961,0.70751953,1,2,-7,-1,-1,2,4,-6
42.95988690853119,false,0.100097656,0.8901367,0.6694336,0.80114424,0.24987692,0.8901367,0.6694336,-20,-9,2,-2,1,2,0,11
42.98832392692566,false,0.07470703,0.9814453,0.6948242,0.80245936,0.24793412,0.9814453,0.6948242,4,-2,-7,-6,0,-3,-4,-3
43.01721501350403,false,0.08544922,0.94921875,0.7285156,0.8060423,0.24139763,0.94921875,0.7285156,-1,-1,0,-3,3,0,-1,-4
43.019739985466,false,0.21923828,0.8623047,0.73583984,0.81140435,0.22784509,0.8623047,0.73583984,-3,2,-5,-1,-4,-4,-11,-3
43.04781997203827,false,0.35302734,0.74902344,0.70410156,0.81653,0.21258588,0.74902344,0.70410156,8,3,8,2,-2,0,1,-5
43.07718896865845,false,0.42578125,0.70996094,0.67529297,0.82124406,0.19714741,0.70996094,0.67529297,0,-13,-16,-1,-4,-2,0,-8
43.079768896102905,false,0.44677734,0.671875,0.60253906,0.8255167,0.18188834,0.671875,0.60253906,2,5,2,1,-1,-1,1,3
43.10789597034454,false,0.44580078,0.6123047,0.6230469,0.8303326,0.16479696,0.6123047,0.6230469,-4,-1,2,3,-2,-2,-12,-6
43.137306928634644,false,0.5258789,0.54785156,0.5854492,0.8345504,0.14612108,0.54785156,0.5854492,-3,-1,1,-1,4,-2,1,1
43.167827010154724,false,0.60791016,0.5234375,0.56152344,0.8380742,0.12701423,0.5234375,0.56152344,6,4,5,0,0,2,1,-2
43.16850399971008,false,0.61328125,0.40771484,0.5341797,0.8415736,0.106936246,0.40771484,0.5341797,1,-1,12,-2,0,-5,1,4
43.1972599029541,false,0.61035156,0.31054688,0.48242188,0.8445591,0.08697671,0.31054688,0.48242188,0,-2,-10,-2,1,-1,0,1
43.22732090950012,false,0.6513672,0.2680664,0.46289062,0.846931,0.06829892,0.2680664,0.46289062,-1,-4,-10,-2,-4,-1,3,0
43.229713916778564,false,0.6557617,0.22949219,0.45654297,0.84876144,0.049683,0.22949219,0.45654297,1,-2,-1,-2,-1,1,0,-1
43.287341952323914,false,0.64501953,0.18798828,0.44189453,0.84992313,0.03295932,0.18798828,0.44189453,-1,0,-3,0,-7,-5,1,4
43.28983998298645,false,0.67626953,0.13623047,0.4272461,0.850779,0.017395223,0.13623047,0.4272461,-4,-3,-4,-4,-5,0,-2,0
43.34766900539398,false,0.67822266,0.051757812,0.42138672,0.85174245,-0.008056611,0.051757812,0.42138672,0,1,0,0,0,2,-4,-2
43.377251982688904,false,0.62939453,0.04638672,0.43847656,0.8520629,-0.01641869,0.04638672,0.43847656,-1,10,4,1,3,-3,1,-1
43.379763007164,false,0.6767578,0.076660156,0.46777344,0.85253155,-0.02551247,0.076660156,0.46777344,-1,-1,-10,-6,2,0,-1,-1
43.406699895858765,false,0.6459961,0.10058594,0.48486328,0.8528008,-0.026184622,0.10058594,0.48486328,-3,-4,-1,0,-4,-3,-3,0
43.40899896621704,false,0.57177734,0.14648438,0.5708008,0.8535726,-0.023986703,0.14648438,0.5708008,-9,-14,4,11,-2,-3,-2,0
43.437783002853394,false,0.5288086,0.16064453,0.48046875,0.8535304,-0.019775733,0.16064453,0.48046875,1,-1,-6,-6,-2,3,-3,0
43.46724498271942,false,0.49609375,0.2319336,0.54345703,0.85305977,-0.010376371,0.2319336,0.54345703,3,3,8,0,-7,-1,1,7
43.468701004981995,false,0.5258789,0.26513672,0.54833984,0.85291237,0.002380391,0.26513672,0.54833984,-1,8,7,0,0,0,-3,-7
43.52789294719696,false,0.59277344,0.27441406,0.53271484,0.8527181,0.014770437,0.27441406,0.53271484,-2,-2,-3,1,-1,1,-3,-6
43.5301479101181,false,0.6269531,0.2993164,0.5229492,0.851311,0.03057835,0.2993164,0.5229492,-1,-4,-7,-7,-2,-4,2,-2
43.586938977241516,false,0.5,0.38720703,0.46972656,0.8452892,0.0751965,0.38720703,0.46972656,0,0,5,11,-2,1,1,-1
43.588955998420715,false,0.47070312,0.4165039,0.6279297,0.8414779,0.100157045,0.4165039,0.6279297,2,-1,-3,-5,1,0,1,-5
43.59108591079712,false,0.4814453,0.5576172,0.71777344,0.8361255,0.12609936,0.5576172,0.71777344,-8,1,2,-2,-4,0,-3,0
43.61724591255188,false,0.50341797,0.6875,0.6777344,0.8287307,0.15289222,0.6875,0.6777344,5,1,-12,2,-1,0,1,-1
43.64692997932434,false,0.5263672,0.7158203,0.63134766,0.8201944,0.17797938,0.7158203,0.63134766,-1,0,2,-4,-1,0,-4,0
43.64859092235565,false,0.4560547,0.6870117,0.7133789,0.8113525,0.19977106,0.6870117,0.7133789,-4,3,3,1,0,0,-1,1
43.67732000350952,false,0.3803711,0.6557617,0.7807617,0.80160904,0.22004116,0.6557617,0.7807617,3,-4,-5,-7,0,-3,-2,0
43.70679199695587,false,0.32861328,0.7734375,0.8149414,0.79018706,0.2421344,0.7734375,0.8149414,15,-3,-3,-3,-3,-1,2,1
43.827865958213806,false,0.40576172,0.8227539,0.7246094,0.77807885,0.2630014,0.8227539,0.7246094,-1,1,0,2,-1,1,1,-1
43.82994592189789,false,0.41455078,0.8364258,0.7050781,0.76582223,0.28265902,0.8364258,0.7050781,-12,-2,-7,-2,-1,-3,-2,2
43.85746490955353,false,0.2578125,0.9682617,0.5908203,0.70074666,0.38250843,0.9682617,0.5908203,12,4,-8,-7,-22,0,0,-7
43.88766896724701,false,0.18164062,1.0664062,0.5957031,0.6933011,0.39721835,1.0664062,0.5957031,-7,3,1,-1,10,-4,0,-2
43.890044927597046,false,0.14550781,1.0107422,0.6303711,0.6900758,0.40668452,1.0107422,0.6303711,-2,0,4,2,-3,-2,-2,1
43.91734194755554,false,0.1430664,0.87353516,0.59472656,0.6893194,0.41155308,0.87353516,0.59472656,-1,-1,5,3,-1,-3,2,0
43.94728398323059,false,0.18457031,0.8676758,0.53759766,0.6886002,0.41583347,0.8676758,0.53759766,-2,-2,0,-3,3,-3,1,1
43.94946992397308,false,0.1616211,0.9536133,0.49316406,0.68726134,0.4223056,0.9536133,0.49316406,-5,1,-1,-3,0,1,-1,0
43.97709798812866,false,0.08984375,1.0009766,0.47558594,0.68696165,0.42859572,1.0009766,0.47558594,8,-4,-2,2,-1,-2,-1,0
44.00713491439819,false,0.041015625,0.9682617,0.49804688,0.6885513,0.43232062,0.9682617,0.49804688,-2,-1,-1,-2,0,2,-6,1
44.009467005729675,false,-0.012207031,0.92822266,0.5136719,0.69075644,0.43452284,0.92822266,0.5136719,-4,-3,-2,10,1,1,1,1
44.03704500198364,false,-0.022949219,0.9121094,0.49121094,0.6926812,0.43676332,0.9121094,0.49121094,2,-1,-1,3,1,-4,0,-5
44.06718289852142,false,-0.027832031,0.9394531,0.49316406,0.69422877,0.4394015,0.9394531,0.49316406,-2,-4,-6,-14,3,-2,-1,-2
44.06940698623657,false,-0.057617188,0.91308594,0.47265625,0.69576883,0.44209614,0.91308594,0.47265625,-2,0,1,2,-2,-1,-1,-3
44.09712994098663,false,-0.05517578,0.88720703,0.48583984,0.6974445,0.44384494,0.88720703,0.48583984,0,-1,-2,-5,0,0,0,0
44.12708389759064,false,-0.05029297,0.8930664,0.48828125,0.69854087,0.44585767,0.8930664,0.48828125,-1,-3,-3,-4,-3,-3,-2,1
44.12925899028778,false,-0.091308594,0.95996094,0.4975586,0.6983047,0.44934177,0.95996094,0.4975586,-5,-1,-1,2,-3,0,1,-1
44.15708589553833,false,-0.118652344,0.96240234,0.4741211,0.6984423,0.45197633,0.96240234,0.4741211,0,-5,0,-3,-1,0,-2,0
44.21754693984985,false,-0.115234375,0.9638672,0.49414062,0.69909054,0.45336515,0.9638672,0.49414062,1,0,3,3,-4,2,-1,-1
44.247124910354614,false,-0.12207031,0.99902344,0.5004883,0.6992056,0.45506954,0.99902344,0.5004883,2,1,3,1,-3,-1,0,-1
44.249576926231384,false,-0.13134766,1.0102539,0.49902344,0.6994744,0.45630634,1.0102539,0.49902344,-1,-2,0,-2,-2,1,0,1
44.27761995792389,false,-0.13427734,0.9785156,0.49951172,0.70337677,0.45245853,0.9785156,0.49951172,0,0,0,1,-2,1,0,2
44.27960801124573,false,-0.10986328,0.9223633,0.4794922,0.7050308,0.4494106,0.9223633,0.4794922,-1,-4,2,-1,-8,-2,-4,1
44.307461977005005,false,-0.09423828,0.87158203,0.45654297,0.70617735,0.4465336,0.87158203,0.45654297,0,0,-1,-5,2,1,3,-5
44.33676195144653,false,-0.095214844,0.82910156,0.42626953,0.7065419,0.44415215,0.82910156,0.42626953,3,0,-3,-4,1,1,-2,-1
44.338634967803955,false,-0.10058594,0.8208008,0.40966797,0.7056968,0.4428763,0.8208008,0.40966797,-3,-1,-1,-1,2,-4,0,-2
44.36776089668274,false,-0.10839844,0.84033203,0.37695312,0.7037019,0.4429495,0.84033203,0.37695312,1,0,0,2,-3,-2,-2,-1
44.397002935409546,false,-0.13867188,0.8666992,0.35888672,0.7007382,0.44451496,0.8666992,0.35888672,2,0,-1,5,-5,0,0,0
44.39891695976257,false,-0.14892578,0.859375,0.34716797,0.69799495,0.44598192,0.859375,0.34716797,-3,-2,-3,1,1,0,-4,0
44.45789301395416,false,-0.14941406,0.8388672,0.34765625,0.6953667,0.44732222,0.8388672,0.34765625,-1,-1,3,2,1,-1,-2,1
44.45997893810272,false,-0.140625,0.86279297,0.35302734,0.6922659,0.44928315,0.86279297,0.35302734,-1,-1,-1,-6,-5,-2,0,1
44.488287925720215,false,-0.16455078,0.98583984,0.3852539,0.68507344,0.45588148,0.98583984,0.3852539,-2,-5,-5,-1,7,-1,0,-1
44.517151951789856,false,-0.12841797,1.0180664,0.4506836,0.6836048,0.45679447,1.0180664,0.4506836,-4,-1,-1,4,1,-2,-1,-1
44.51938498020172,false,-0.09082031,1.0219727,0.5107422,0.6836763,0.45564178,1.0219727,0.5107422,-1,-3,-2,0,-4,1,2,-1
44.54753398895264,false,-0.072265625,1.0327148,0.5932617,0.68499255,0.45287755,1.0327148,0.5932617,0,0,-1,-4,3,-3,0,-2
44.576488971710205,false,-0.07324219,1.090332,0.6870117,0.6876358,0.44849527,1.090332,0.6870117,1,-4,-3,-2,0,0,2,1
44.578964948654175,false,-0.060546875,1.0917969,0.7373047,0.6919005,0.44122693,1.0917969,0.7373047,-1,4,1,-5,-3,-1,-2,-2
44.637478947639465,false,-0.05029297,1.1005859,0.7885742,0.69721305,0.43127966,1.1005859,0.7885742,0,-6,2,1,-3,-2,-2,-4
44.64003801345825,false,-0.067871094,1.0947266,0.81347656,0.7031419,0.4190775,1.0947266,0.81347656,-4,-5,4,0,-2,-3,-2,0
44.668818950653076,false,-0.08105469,0.98583984,0.7553711,0.7143151,0.3879507,0.98583984,0.7553711,1,23,-5,-2,1,-1,-1,1
44.69699990749359,false,-0.08105469,0.9560547,0.6928711,0.71843266,0.3711485,0.9560547,0.6928711,1,-2,2,2,-1,1,1,-2
44.69897401332855,false,-0.11669922,0.92626953,0.6928711,0.7216142,0.35448998,0.92626953,0.6928711,-1,-3,0,2,-6,0,0,0
44.72784495353699,false,-0.13232422,0.8535156,0.71435547,0.7241849,0.33569464,0.8535156,0.71435547,-3,-2,-3,-6,2,-4,-2,-1
44.75690293312073,false,-0.114746094,0.7661133,0.7006836,0.7251614,0.31494257,0.7661133,0.7006836,1,0,-5,-1,-2,1,-1,-2
44.759089946746826,false,-0.111328125,0.7192383,0.6904297,0.7235878,0.29395184,0.7192383,0.6904297,1,-2,0,-1,2,1,-2,-1
44.78803598880768,false,-0.099121094,0.7109375,0.6088867,0.7194315,0.27313617,0.7109375,0.6088867,-3,0,-2,-1,-2,1,-1,-3
44.8171569108963,false,-0.07128906,0.7133789,0.5288086,0.71308523,0.25244546,0.7133789,0.5288086,-4,-1,2,1,-2,-4,0,0
44.81927299499512,false,-0.044921875,0.6855469,0.46972656,0.7051494,0.23150972,0.6855469,0.46972656,-3,-2,-1,2,-1,0,-2,0
44.84790599346161,false,-0.0073242188,0.61572266,0.42236328,0.69572574,0.20946844,0.61572266,0.42236328,-1,-2,-4,0,-1,0,-2,1
44.90718591213226,false,0.08642578,0.58740234,0.38671875,0.68425006,0.18859448,0.58740234,0.38671875,0,3,-1,-1,-3,-1,3,-1
44.90965795516968,false,0.17919922,0.6196289,0.35498047,0.6710856,0.17077741,0.6196289,0.35498047,2,1,0,-8,1,0,3,-2
44.911762952804565,false,0.25195312,0.6464844,0.2783203,0.65715647,0.15484405,0.6464844,0.2783203,0,-5,-6,-3,-3,-5,-6,-2
44.93727195262909,false,0.36132812,0.67529297,0.27294922,0.6437403,0.13958795,0.67529297,0.27294922,-5,-6,-7,-8,-6,-3,-2,1
44.9395250082016,false,0.42236328,0.7885742,0.26660156,0.6299898,0.12591252,0.7885742,0.26660156,-4,-3,-11,-3,-5,1,-2,-2
44.96796798706055,false,0.42626953,0.8652344,0.23388672,0.61703986,0.111933835,0.8652344,0.23388672,0,-2,0,-7,-4,-5,-5,3
44.997214913368225,false,0.34277344,0.9243164,0.2915039,0.6050383,0.09631296,0.9243164,0.2915039,3,1,10,1,0,3,2,1
44.999151945114136,false,0.31982422,0.94970703,0.3149414,0.5942201,0.08025877,0.94970703,0.3149414,-4,-1,3,1,3,-1,0,0
45.027859926223755,false,0.37841797,0.87060547,0.2866211,0.5846507,0.066954985,0.87060547,0.2866211,-9,-6,-4,4,0,0,1,0
45.0867919921875,false,0.46533203,0.79003906,0.31298828,0.5788496,0.056517795,0.79003906,0.31298828,3,-5,-2,-3,-3,0,1,-2
45.11800491809845,false,0.53271484,0.79296875,0.31152344,0.5764181,0.05249042,0.79296875,0.31152344,2,1,-3,4,5,-2,-3,-1
45.11976099014282,false,0.5048828,0.8510742,0.34765625,0.58262956,0.05670049,0.8510742,0.34765625,-4,-3,-2,1,-2,0,-2,-4
45.14825797080994,false,0.4116211,0.6928711,0.49169922,0.5988068,0.06469628,0.6928711,0.49169922,1,1,-1,-4,0,0,1,0
45.17723894119263,false,0.3642578,0.5966797,0.6035156,0.60997516,0.07073857,0.5966797,0.6035156,-3,0,2,3,-1,-1,-2,1
45.18005299568176,false,0.36035156,0.57373047,0.65625,0.62067604,0.0796521,0.57373047,0.65625,-1,-2,1,2,-3,0,-1,-1
45.20849299430847,false,0.32958984,0.58496094,0.68896484,0.6304015,0.09106003,0.58496094,0.68896484,-1,0,-1,1,-7,-1,-1,3
45.237252950668335,false,0.3203125,0.61328125,0.68408203,0.6388447,0.1037581,0.61328125,0.68408203,0,2,-5,0,-1,-3,-3,1
45.23998999595642,false,0.31152344,0.6098633,0.6538086,0.64623237,0.11639263,0.6098633,0.6538086,-1,1,6,-3,4,-1,1,-1
45.26865899562836,false,0.29492188,0.57128906,0.6147461,0.65256906,0.1286584,0.57128906,0.6147461,-1,0,-1,-1,-1,-1,-1,-1
45.29665195941925,false,0.22949219,0.56396484,0.7763672,0.658016,0.14172277,0.56396484,0.7763672,1,-2,-1,-1,-1,-1,0,-3
45.29871392250061,false,0.123046875,0.5605469,0.90234375,0.6614346,0.15374677,0.5605469,0.90234375,1,-5,-3,-2,-4,-2,-1,-2
45.328107953071594,false,0.08886719,0.49658203,0.89160156,0.66130465,0.16375454,0.49658203,0.89160156,-1,-8,0,-3,-3,-2,-2,-3
45.3568389415741,false,0.15136719,0.48828125,0.74316406,0.65844065,0.17303294,0.48828125,0.74316406,-3,12,-2,-3,-4,0,1,0
45.359050989151,false,0.12011719,0.6118164,0.74365234,0.653852,0.18493155,0.6118164,0.74365234,1,6,7,-2,-1,-2,0,-1
45.38836395740509,false,-0.019042969,0.69091797,0.80371094,0.6488499,0.19689491,0.69091797,0.80371094,-1,-9,-4,2,2,0,-1,-3
45.41737496852875,false,-0.059570312,0.6386719,0.80078125,0.6432819,0.20506898,0.6386719,0.80078125,0,-6,-3,1,1,-2,0,1
45.41981589794159,false,-0.03564453,0.53808594,0.8105469,0.63712746,0.21056516,0.53808594,0.8105469,-2,2,-1,-2,-3,-3,-2,0
45.44819092750549,false,-0.057128906,0.46044922,0.85546875,0.6295188,0.21673658,0.46044922,0.85546875,0,-4,3,1,-1,1,-1,2
45.47720396518707,false,-0.06542969,0.44921875,0.8491211,0.61927354,0.2242471,0.44921875,0.8491211,-2,-5,-1,3,-2,0,2,1
45.479702949523926,false,-0.095703125,0.4921875,0.8769531,0.6067708,0.23230758,0.4921875,0.8769531,0,-5,-5,0,-2,0,2,-2
45.50844693183899,false,-0.14355469,0.57421875,0.93115234,0.5930595,0.23833458,0.57421875,0.93115234,4,5,-2,-1,-4,-1,-3,1
45.537351965904236,false,-0.13769531,0.56152344,0.8535156,0.57855403,0.24121168,0.56152344,0.8535156,-2,9,-1,-3,2,-1,-2,2
45.53984093666077,false,-0.10888672,0.5361328,0.7729492,0.56296533,0.2419335,0.5361328,0.7729492,-5,10,-4,0,2,-2,-2,-4
45.56888997554779,false,-0.12597656,0.47558594,0.73828125,0.54655933,0.24181665,0.47558594,0.73828125,5,-11,0,1,0,1,0,-4
45.59692990779877,false,-0.13867188,0.4165039,0.6928711,0.5285417,0.24290946,0.4165039,0.6928711,-3,-4,0,-2,0,2,-5,0
45.599050998687744,false,-0.15820312,0.4013672,0.71240234,0.5089493,0.24644889,0.4013672,0.71240234,-16,5,2,-2,-3,-6,-10,-7
45.627872943878174,false,-0.2368164,0.45117188,0.76123047,0.48809582,0.25146365,0.45117188,0.76123047,25,-6,-7,-4,-2,-1,2,9
45.65732991695404,false,-0.2631836,0.47070312,0.7392578,0.46655512,0.25720346,0.47070312,0.7392578,10,-17,-2,3,2,2,1,-3
45.6598699092865,false,-0.2685547,0.49267578,0.7026367,0.44488853,0.26306346,0.49267578,0.7026367,-3,6,-3,1,1,-4,-3,-2
45.688068985939026,false,-0.27490234,0.5566406,0.6352539,0.42291245,0.2685546,0.5566406,0.6352539,-7,-1,1,-1,3,2,1,2
45.71790099143982,false,-0.25830078,0.5551758,0.5708008,0.40124363,0.27300924,0.5551758,0.5708008,-2,5,-2,-2,-1,0,1,-2
45.720457911491394,false,-0.26708984,0.48535156,0.54833984,0.38030216,0.27758214,0.48535156,0.54833984,-4,-65,4,-1,-8,2,-2,-2
45.74784195423126,false,-0.32128906,0.34521484,0.57910156,0.35948485,0.28417003,0.34521484,0.57910156,-5,39,-7,-1,-1,-1,2,4
45.77713191509247,false,-0.40234375,0.25048828,0.5751953,0.33734015,0.2930898,0.25048828,0.5751953,7,12,-2,0,-1,0,1,-1
45.77984595298767,false,-0.4248047,0.21826172,0.5722656,0.31242356,0.30485556,0.21826172,0.5722656,-10,2,0,1,0,-1,2,0
45.83787989616394,false,-0.4736328,0.21240234,0.55029297,0.28375587,0.31897357,0.21240234,0.55029297,1,1,2,5,-2,-2,-1,0
45.83984100818634,false,-0.5649414,0.23730469,0.52001953,0.25127324,0.33482754,0.23730469,0.52001953,-11,12,-3,-2,-1,0,1,-19
45.86781191825867,false,-0.8251953,0.32666016,0.47460938,0.17785367,0.371149,0.32666016,0.47460938,3,5,2,-5,-1,-1,-1,-1
45.89711093902588,false,-1.0078125,0.36376953,0.56689453,0.13964999,0.39038518,0.36376953,0.56689453,-2,-5,2,-2,0,-2,0,-1
45.899619936943054,false,-1.2011719,0.43066406,0.6230469,0.103330545,0.40917188,0.43066406,0.6230469,0,-9,-3,1,0,0,-5,6
45.927870988845825,false,-1.2314453,0.4453125,0.72021484,0.070737824,0.4268683,0.4453125,0.72021484,-7,-3,-4,4,-1,-3,-2,17
46.01732397079468,false,-1.199707,0.4399414,0.8339844,0.044128455,0.44268835,0.4399414,0.8339844,-6,-1,-3,12,2,-1,1,-39
46.0769909620285,false,-1.0957031,0.39892578,0.88964844,0.024535542,0.456593,0.39892578,0.88964844,0,-17,-27,-4,0,-3,1,1
46.080983996391296,false,-0.98828125,0.14697266,0.82421875,0.040588077,0.49322146,0.14697266,0.82421875,0,-6,-16,4,-4,1,-1,-2
46.108120918273926,false,-0.9658203,-0.06542969,0.8515625,0.047180526,0.49261838,-0.06542969,0.8515625,1,0,4,2,1,0,1,-3
46.137141942977905,false,-0.93310547,0.06542969,0.8256836,0.046019938,0.48858038,0.06542969,0.8256836,-5,1,4,-2,-1,-2,-2,1
46.167523980140686,false,-0.89208984,0.23925781,0.77441406,0.04663127,0.4830365,0.23925781,0.77441406,-2,2,-3,1,-2,-1,-1,-3
46.169191002845764,false,-0.87158203,0.31982422,0.74072266,0.051147632,0.47668615,0.31982422,0.74072266,1,9,0,4,-2,-2,-1,-1
46.19788300991058,false,-0.89208984,0.3227539,0.7373047,0.059143823,0.46967152,0.3227539,0.7373047,-1,-7,-3,-1,0,1,-1,-2
46.200339913368225,false,-0.8964844,0.25830078,0.7241211,0.06945659,0.46178257,0.25830078,0.7241211,3,-2,1,0,2,-1,1,0
46.2578159570694,false,-0.89501953,0.21191406,0.72314453,0.080930844,0.452993,0.21191406,0.72314453,-1,-1,1,-1,2,2,1,-2
46.25913393497467,false,-0.91748047,0.18017578,0.73046875,0.09277335,0.44342,0.18017578,0.73046875,1,-2,0,-2,1,-3,1,-1
46.288020968437195,false,-0.9272461,0.24169922,0.7709961,0.115784824,0.42194015,0.24169922,0.7709961,0,-4,3,-3,-9,-5,-4,-2
46.317384004592896,false,-0.9243164,0.31591797,0.76416016,0.12719205,0.41038355,0.31591797,0.76416016,1,1,1,-6,2,1,-2,1
46.31977391242981,false,-0.90625,0.35839844,0.7285156,0.13994804,0.39738408,0.35839844,0.7285156,-3,-7,-3,0,-5,-7,-4,-3
46.34795093536377,false,-0.8642578,0.3671875,0.6191406,0.15429461,0.38414964,0.3671875,0.6191406,-4,0,3,2,5,4,2,3
46.37717390060425,false,-0.8642578,0.45996094,0.5986328,0.169365,0.37119928,0.45996094,0.5986328,-4,1,-4,-5,-2,-4,-5,-4
46.37976801395416,false,-0.85009766,0.51464844,0.5839844,0.18657951,0.35753444,0.51464844,0.5839844,1,0,0,0,6,5,2,0
46.40826499462128,false,-0.8154297,0.57910156,0.6147461,0.20605192,0.34313503,0.57910156,0.6147461,2,0,2,1,13,8,4,0
46.437466979026794,false,-0.77246094,0.5678711,0.6435547,0.22747637,0.32708502,0.5678711,0.6435547,-1,-2,-9,-2,-2,-4,-4,0
46.497761964797974,false,-0.75341797,0.48583984,0.6855469,0.25048533,0.30938354,0.48583984,0.6855469,5,-1,-5,-5,-10,-3,0,0
46.4995139837265,false,-0.7084961,0.44580078,0.7265625,0.27318504,0.29033542,0.44580078,0.7265625,0,2,1,0,0,-1,-2,-1
46.527812004089355,false,-0.44677734,0.49365234,0.6328125,0.33525273,0.2393093,0.49365234,0.6328125,-3,3,2,3,-2,-3,-1,-3
46.55728590488434,false,-0.39111328,0.5576172,0.6171875,0.35564104,0.22698285,0.5576172,0.6171875,-3,-1,-4,2,-2,0,-1,0
46.55972599983215,false,-0.33789062,0.5439453,0.6020508,0.37713242,0.21691674,0.5439453,0.6020508,-2,-6,1,3,2,2,0,2
46.5878849029541,false,-0.30322266,0.5332031,0.61376953,0.39868018,0.20965499,0.5332031,0.61376953,0,-1,-3,1,-2,-1,2,0
46.677172899246216,false,-0.25195312,0.56347656,0.66308594,0.42015776,0.20452479,0.56347656,0.66308594,0,-4,-2,-5,-2,-3,1,-1
46.679253935813904,false,-0.20214844,0.5527344,0.6899414,0.44200143,0.20147014,0.5527344,0.6899414,3,-2,1,-1,-3,-1,-2,0
46.70818495750427,false,-0.06591797,0.5234375,0.8798828,0.52465516,0.20165898,0.5234375,0.8798828,3,2,9,1,0,-1,-3,0
46.73789393901825,false,-0.011230469,0.5361328,0.8833008,0.5430371,0.2039212,0.5361328,0.8833008,-9,3,-2,-2,1,-1,-1,-4
46.74063301086426,false,-0.016113281,0.6513672,0.9111328,0.55987877,0.206239,0.6513672,0.9111328,-4,3,-3,-4,-6,-3,0,1
46.76778495311737,false,-0.022949219,0.72265625,0.8857422,0.5759955,0.20764403,0.72265625,0.8857422,-1,3,6,2,-2,2,2,2
46.7970529794693,false,-0.0107421875,0.75634766,0.8833008,0.5919736,0.20641868,0.75634766,0.8833008,126,-6,-16,-9,3,-12,1,17
46.828063011169434,false,-0.044433594,0.79541016,0.9267578,0.60777605,0.20232753,0.79541016,0.9267578,-15,-96,14,6,-5,7,-3,-13
46.82997989654541,false,-0.061035156,0.78027344,0.94091797,0.623336,0.19457507,0.78027344,0.94091797,-55,41,-5,-8,-1,-2,-1,-3
46.887946009635925,false,-0.045410156,0.79785156,0.93603516,0.63843024,0.18371655,0.79785156,0.93603516,-28,32,4,6,-1,1,0,-2
46.946921944618225,false,-0.017578125,0.7529297,0.90625,0.6534249,0.16979527,0.7529297,0.90625,-11,5,1,-5,-2,2,-3,-8
46.94863498210907,false,0.071777344,0.6738281,0.85302734,0.6810217,0.13427565,0.6738281,0.85302734,-3,9,0,-2,-3,-2,0,-2
46.97708201408386,false,0.17089844,0.5732422,0.7104492,0.71600455,0.066284284,0.5732422,0.7104492,-4,1,-7,3,3,-3,0,-1
46.980135917663574,false,0.234375,0.5180664,0.6489258,0.7254641,0.04113771,0.5180664,0.6489258,3,3,7,-1,0,-1,0,0
47.007676005363464,false,0.2631836,0.44433594,0.5859375,0.733938,0.01477031,0.44433594,0.5859375,-3,3,-9,-6,-2,-4,1,5
47.06713390350342,false,0.31884766,0.41210938,0.5756836,0.74094725,-0.011535341,0.41210938,0.5756836,-1,-3,2,-4,0,-2,2,3
47.06874489784241,false,0.31933594,0.37597656,0.57714844,0.74687874,-0.036925852,0.37597656,0.57714844,2,-1,3,5,1,-2,-6,-3
47.071048974990845,false,0.36767578,0.31689453,0.5234375,0.75152415,-0.06182847,0.31689453,0.5234375,-4,108,6,1,5,-4,1,3
47.12728500366211,false,0.42626953,0.22802734,0.45703125,0.75504214,-0.08617893,0.22802734,0.45703125,1,-98,11,14,0,7,-4,-10
47.15705692768097,false,0.484375,0.14453125,0.43798828,0.75737035,-0.10912871,0.14453125,0.43798828,-2,-57,-2,-1,-1,3,1,-2
47.1590279340744,false,0.5571289,0.12939453,0.45410156,0.7593931,-0.14562866,0.12939453,0.45410156,-3,10,-13,2,-2,-3,-1,1
47.16111493110657,false,0.62890625,0.023925781,0.43652344,0.7595634,-0.16167806,0.023925781,0.43652344,3,-1,-5,-2,-2,2,3,3
47.18784999847412,true,0.6455078,-0.0014648438,0.52734375,0.7595223,-0.17334002,-0.0014648438,0.52734375,-3,-17,-10,-18,1,-7,-8,-8
47.217474937438965,true,0.7470703,-0.0234375,0.43603516,0.75913864,-0.18212491,-0.0234375,0.43603516,1,-6,-5,-3,-6,-1,-4,-2
47.247424960136414,true,0.7553711,0.06689453,0.5756836,0.759394,-0.1867052,0.06689453,0.5756836,0,2,-4,4,-1,-2,-3,-7
47.24843394756317,true,0.7519531,0.036621094,0.5546875,0.75914145,-0.18993795,0.036621094,0.5546875,-1,-1,11,1,-1,-1,1,7
47.27740299701691,true,0.7763672,0.10986328,0.69628906,0.7586027,-0.19073404,0.10986328,0.69628906,-4,-6,-7,-12,-2,0,1,3
47.306602001190186,true,0.7524414,0.15771484,0.69189453,0.7579313,-0.188903,0.15771484,0.69189453,-3,-3,12,8,-4,-5,-2,-3
47.30811393260956,true,0.796875,0.13427734,0.71875,0.7577985,-0.18755756,0.13427734,0.71875,-4,-4,-6,2,-1,-2,-1,-1
47.33714497089386,true,0.8588867,0.0390625,0.6816406,0.7575624,-0.18652198,0.0390625,0.6816406,1,3,-4,-1,-1,-1,-1,-1
47.36681091785431,true,0.8847656,0.043945312,0.66796875,0.7577334,-0.18334524,0.043945312,0.66796875,2,5,0,-1,-2,3,2,6
47.3687059879303,true,0.8510742,0.17919922,0.64746094,0.758175,-0.17675695,0.17919922,0.64746094,-3,4,2,1,0,3,-1,0
47.427215933799744,true,0.82958984,0.27197266,0.6245117,0.7581694,-0.17144565,0.27197266,0.6245117,-1,-2,1,-2,-4,1,2,0
47.42942297458649,true,0.8544922,0.20703125,0.6147461,0.75748557,-0.17089354,0.20703125,0.6147461,1,-1,8,2,3,3,-3,-2
47.43111598491669,true,0.8354492,0.1274414,0.62158203,0.75725025,-0.1712007,0.1274414,0.62158203,-1,-1,-4,-5,1,0,-1,1
47.45829796791077,true,0.82666016,0.10498047,0.5913086,0.75743407,-0.17126189,0.10498047,0.5913086,2,0,-2,1,3,-1,0,-1
47.48734390735626,true,0.8364258,0.07861328,0.5449219,0.75727445,-0.17206067,0.07861328,0.5449219,0,-6,-8,-6,-5,-4,-1,-1
47.490484952926636,true,0.8466797,0.03857422,0.5097656,0.7563346,-0.17419133,0.03857422,0.5097656,1,1,9,6,-2,-2,-2,2
47.51802897453308,true,0.8779297,-0.05810547,0.4658203,0.75475276,-0.17785455,-0.05810547,0.4658203,-5,3,-3,-3,-3,0,1,-4
47.54669201374054,true,0.89941406,-0.18457031,0.42138672,0.7522001,-0.18267892,-0.18457031,0.42138672,-4,-3,-6,-1,0,-4,-4,-4
47.54871392250061,true,0.921875,-0.265625,0.40429688,0.74856174,-0.18590453,-0.265625,0.40429688,6,3,5,12,-2,-3,-2,-1
47.60764789581299,true,0.91259766,-0.32861328,0.35009766,0.74430037,-0.18474762,-0.32861328,0.35009766,1,-2,-4,-1,-3,1,2,-5
47.637247920036316,true,0.9067383,-0.3852539,0.37890625,0.73916197,-0.17266032,-0.3852539,0.37890625,-6,-2,-6,-2,2,-1,4,7
47.639418959617615,true,0.64160156,-0.17382812,0.7216797,0.726969,-0.12194477,-0.17382812,0.7216797,-29,-36,-20,-3,-3,-25,-101,-38
47.666787981987,true,0.44482422,0.14404297,0.89990234,0.71665764,-0.08373823,0.14404297,0.89990234,38,12,6,-1,10,65,90,-11
47.66909301280975,true,0.31982422,0.28759766,1.1040039,0.7026086,-0.039732296,0.28759766,1.1040039,15,-74,1,-16,-12,-8,-11,1
47.69893300533295,true,0.5292969,0.2006836,0.6796875,0.6835979,0.0056152684,0.2006836,0.6796875,12,43,-13,-7,-3,-41,-18,-30
47.726746916770935,true,0.5722656,0.41796875,0.56689453,0.66157275,0.052979533,0.41796875,0.56689453,-12,35,-15,-2,-17,-6,-24,-11
47.72928500175476,true,0.25830078,0.5029297,-0.46191406,0.6370233,0.09924307,0.5029297,-0.46191406,9,26,37,33,-58,12,20,29
47.75796389579773,true,-0.85595703,1.9584961,0.106933594,0.6180989,0.15093893,1.9584961,0.106933594,-13,9,22,-20,-2,-52,-6,-113
47.78743898868561,true,-1.2070312,2.4936523,0.42626953,0.6146142,0.16711159,2.4936523,0.42626953,-62,-12,-13,-26,31,69,-4,102
47.78984594345093,true,-0.34570312,1.5644531,0.6230469,0.61198413,0.15325542,1.5644531,0.6230469,-15,-3,-3,24,-2,-21,5,23
47.817922949790955,true,0.30029297,0.69384766,0.7519531,0.613391,0.13970666,0.69384766,0.7519531,-83,17,-11,-8,23,-12,-3,-78
47.846794962882996,true,0.49609375,0.56103516,0.75097656,0.6151718,0.134277,0.56103516,0.75097656,89,-10,-14,0,6,0,-2,32
47.8492089509964,true,0.3720703,0.7963867,0.76660156,0.612472,0.13891244,0.7963867,0.76660156,-1,-15,-9,6,0,-11,-5,-13
47.877869963645935,true,0.16455078,0.90234375,0.68603516,0.6108999,0.14617898,0.90234375,0.68603516,0,-1,-1,3,5,-7,3,-10
47.90707492828369,true,0.20800781,0.9716797,0.6635742,0.6085283,0.15088084,0.9716797,0.6635742,11,-5,-4,-3,-3,-4,-8,-14
47.90925598144531,true,0.22265625,0.88623047,0.67626953,0.6076087,0.15075776,0.88623047,0.67626953,16,-1,11,1,2,10,3,-3
47.93806993961334,true,0.19482422,0.76904297,0.69091797,0.6076017,0.1488029,0.76904297,0.69091797,9,3,5,-1,2,1,2,13
47.96676993370056,true,0.15625,0.76708984,0.6948242,0.60714895,0.1483084,0.76708984,0.6948242,1,3,-1,0,-3,-5,-2,2
47.968989968299866,true,0.119140625,0.78808594,0.6694336,0.60680395,0.14867978,0.78808594,0.6694336,2,-4,-8,-2,-3,-5,4,-11
47.99844789505005,true,0.099121094,0.8051758,0.6386719,0.60675055,0.14886476,0.8051758,0.6386719,-1,1,3,-1,-1,-1,4,3
48.02730095386505,true,0.08544922,0.80908203,0.62890625,0.60704565,0.14812988,0.80908203,0.62890625,0,4,-18,0,-1,2,2,1
48.03017199039459,true,0.095214844,0.8100586,0.6152344,0.6078535,0.14660749,0.8100586,0.6152344,0,-6,2,-8,1,-4,-5,-1
48.05912399291992,true,0.1171875,0.8076172,0.5932617,0.6091806,0.14397927,0.8076172,0.5932617,-3,-7,-21,1,2,-6,-5,-6
48.08734691143036,true,0.15722656,0.7807617,0.57666016,0.6109059,0.14056513,0.7807617,0.57666016,4,0,8,0,-6,1,0,2
48.09084892272949,false,0.21386719,0.7758789,0.5761719,0.61316174,0.13653621,0.7758789,0.5761719,2,0,3,-3,1,0,6,2
48.11796700954437,false,0.26660156,0.7475586,0.57470703,0.61591107,0.13134879,0.7475586,0.57470703,1,1,12,3,1,0,3,-3
48.14670991897583,false,0.30126953,0.70703125,0.60546875,0.61870253,0.12505884,0.70703125,0.60546875,-2,-3,-4,1,3,-3,-2,-1
48.14923393726349,false,0.32177734,0.6616211,0.62158203,0.6213302,0.118833974,0.6616211,0.62158203,0,2,4,0,1,2,-6,5
48.20799398422241,false,0.31396484,0.65966797,0.6147461,0.6234719,0.11413533,0.65966797,0.6147461,-2,-4,-3,2,0,-3,-3,-1
48.210115909576416,false,0.33398438,0.6694336,0.6035156,0.6253156,0.11059755,0.6694336,0.6035156,1,-4,-1,-4,-3,-3,-4,1
48.23790693283081,false,0.3725586,0.6826172,0.59814453,0.62897086,0.10467589,0.6826172,0.59814453,-3,-2,-4,-4,-3,-1,0,3
48.26748597621918,false,0.38964844,0.68896484,0.5961914,0.63037425,0.10162404,0.68896484,0.5961914,-1,1,-14,-3,3,-2,0,-7
48.26928794384003,false,0.40283203,0.6796875,0.5913086,0.6316522,0.0984496,0.6796875,0.5913086,0,-5,-9,0,-2,-2,-3,-5
48.29751193523407,false,0.4013672,0.6767578,0.59814453,0.6328133,0.09558117,0.6767578,0.59814453,-2,-1,-5,-1,-1,0,3,-1
48.32733595371246,false,0.42871094,0.68603516,0.5761719,0.63360995,0.0930792,0.68603516,0.5761719,1,0,9,2,4,1,4,-3
48.32986497879028,false,0.4506836,0.69433594,0.5727539,0.63433295,0.090880565,0.69433594,0.5727539,0,2,3,2,-4,-1,-1,6
48.358094930648804,false,0.46142578,0.7133789,0.59521484,0.6349952,0.08892619,0.7133789,0.59521484,-1,-2,7,-2,-7,0,-1,-1
48.38697791099548,false,0.4663086,0.70214844,0.5878906,0.6356039,0.086728744,0.70214844,0.5878906,-2,-2,-1,-4,-1,-1,-1,-1
48.38932800292969,false,0.49609375,0.7167969,0.59521484,0.6360886,0.08422589,0.7167969,0.59521484,-3,0,1,2,-1,-1,-2,-2
48.41777789592743,false,0.51464844,0.7163086,0.5761719,0.63647133,0.08148152,0.7163086,0.5761719,0,1,-1,-2,-3,-4,-3,-3
48.446993947029114,false,0.49951172,0.7265625,0.56884766,0.63684195,0.07867446,0.7265625,0.56884766,0,2,-2,-3,-3,0,0,2
48.44922697544098,false,0.47558594,0.73828125,0.57128906,0.63713443,0.075926356,0.73828125,0.57128906,-2,-1,1,0,1,-2,4,1
48.47777593135834,false,0.4794922,0.70410156,0.56689453,0.6380452,0.07250791,0.70410156,0.56689453,-1,-4,-2,0,-1,-1,3,1
48.50730895996094,false,0.4975586,0.6928711,0.56103516,0.63915145,0.06915189,0.6928711,0.56103516,0,0,-4,-5,-1,4,2,0
48.50945997238159,false,0.49804688,0.71875,0.5625,0.6403131,0.06640555,0.71875,0.5625,1,-1,-1,0,-2,-3,-3,-3
48.537925004959106,false,0.47021484,0.71972656,0.55859375,0.6416607,0.06384258,0.71972656,0.55859375,-1,1,3,-2,2,0,-2,-2
48.56692898273468,false,0.46240234,0.70751953,0.5546875,0.643295,0.060606442,0.70751953,0.5546875,0,2,-1,1,-2,-1,-2,-3
48.62802600860596,false,0.45263672,0.7055664,0.5498047,0.64496773,0.057251796,0.7055664,0.5498047,0,-5,-7,-2,1,-3,-3,0
48.65854096412659,false,0.4555664,0.703125,0.5444336,0.6469679,0.053588472,0.703125,0.5444336,2,2,2,-3,-3,-3,-1,-1
48.68733298778534,false,0.50341797,0.6635742,0.4897461,0.65613776,0.035950247,0.6635742,0.4897461,-2,-2,-10,3,-3,1,-1,-2
48.69003701210022,false,0.48876953,0.625,0.5004883,0.6584955,0.03118836,0.625,0.5004883,0,-1,-3,1,0,-1,0,2
48.71885693073273,false,0.49072266,0.57177734,0.4951172,0.66038245,0.025817169,0.57177734,0.4951172,-4,-2,3,2,-7,-3,-1,-4
48.747254967689514,false,0.5180664,0.53515625,0.48583984,0.6615677,0.021728767,0.53515625,0.48583984,1,1,-4,1,-3,1,-1,0
48.74997794628143,false,0.52246094,0.5385742,0.4921875,0.6625341,0.01959221,0.5385742,0.4921875,-4,-3,-3,-7,-4,-1,-2,-1
48.77845799922943,false,0.57177734,0.54345703,0.4482422,0.66313446,0.018981576,0.54345703,0.4482422,-2,9,13,-1,1,-2,2,4
48.80743098258972,false,0.62353516,0.5361328,0.40185547,0.6637933,0.020140843,0.5361328,0.40185547,3,-7,-5,-2,-1,2,-1,-6
48.81000792980194,false,0.6328125,0.5361328,0.39111328,0.66442615,0.023376375,0.5361328,0.39111328,1,21,0,1,-1,-1,2,3
48.83838200569153,false,0.6513672,0.54248047,0.44140625,0.6657061,0.028014952,0.54248047,0.44140625,1,-5,42,8,2,-1,2,5
48.86708998680115,false,0.64453125,0.42919922,0.32080078,0.6684977,0.027953248,0.42919922,0.32080078,-3,-2,-13,-6,-2,-3,-6,-2
48.86915898323059,false,0.6357422,0.53027344,0.67285156,0.6706934,0.03124898,0.53027344,0.67285156,3,1,16,13,1,6,4,3
48.89798200130463,false,0.62402344,0.56640625,0.6621094,0.6719296,0.033019703,0.56640625,0.6621094,1,-12,-13,-16,1,1,1,-2
48.95703589916229,false,0.7138672,0.6401367,0.74902344,0.67278224,0.03308065,0.6401367,0.74902344,-8,-6,-11,-3,-1,-4,-5,-7
48.95880198478699,false,0.7207031,0.5913086,0.6796875,0.67418295,0.032531187,0.5913086,0.6796875,1,-2,-15,1,-2,0,-1,-2
48.98790490627289,false,0.7416992,0.43652344,0.60253906,0.68078095,0.034179427,0.43652344,0.60253906,-5,0,-8,-6,-2,2,-1,0
48.99051094055176,false,0.6948242,0.33984375,0.5996094,0.68657213,0.04016041,0.33984375,0.5996094,6,1,6,0,-5,-3,-2,-3
49.04784595966339,false,0.6201172,0.29785156,0.5908203,0.69214183,0.050415266,0.29785156,0.5908203,-7,0,-1,0,1,-3,0,0
49.05048394203186,false,0.54541016,0.4091797,0.5917969,0.6959159,0.0639642,0.4091797,0.5917969,-7,-4,-4,-1,-1,-1,-3,1
49.07792794704437,false,0.49951172,0.6386719,0.52783203,0.69927835,0.097289845,0.6386719,0.52783203,-3,1,-6,1,1,-3,1,2
49.107340931892395,false,0.39794922,0.6352539,0.5239258,0.7019089,0.1163948,0.6352539,0.5239258,-3,-5,-10,-2,-3,3,-1,-6
49.109431982040405,false,0.31396484,0.5107422,0.6269531,0.70539725,0.13476829,0.5107422,0.6269531,-1,-3,1,0,-4,-1,-1,0
49.13846695423126,false,0.27441406,0.49023438,0.66748047,0.70705426,0.15326427,0.49023438,0.66748047,-3,-1,0,-1,2,0,-2,-2
49.16711497306824,false,0.2758789,0.64404297,0.6357422,0.7063592,0.17358382,0.64404297,0.6357422,4,2,-3,1,0,1,-3,-3
49.16924595832825,false,0.28173828,0.81103516,0.6118164,0.70459044,0.194153,0.81103516,0.6118164,-12,-1,1,0,2,-3,-3,0
49.197901010513306,false,0.26953125,0.859375,0.58984375,0.70304525,0.2120305,0.859375,0.58984375,8,-5,-9,-4,1,-4,-3,-2
49.22691297531128,false,0.2548828,0.75927734,0.61279297,0.7028955,0.22626205,0.75927734,0.61279297,8,0,-1,-3,-1,-3,2,1
49.229230999946594,false,0.1772461,0.6904297,0.7265625,0.7034322,0.23980781,0.6904297,0.7265625,-11,-3,0,-6,-3,2,-1,-4
49.25840890407562,false,0.11767578,0.69091797,0.7421875,0.7025797,0.25427392,0.69091797,0.7421875,1,-6,-4,1,1,-2,0,-2
49.28662097454071,false,0.1459961,0.7636719,0.6723633,0.7007215,0.2690341,0.7636719,0.6723633,9,3,4,-1,0,1,1,-2
49.288731932640076,false,0.19580078,0.80615234,0.62841797,0.69862807,0.2829059,0.80615234,0.62841797,6,0,1,1,-1,0,-3,0
49.31791889667511,false,0.125,0.8486328,0.64697266,0.6963987,0.2966866,0.8486328,0.64697266,-4,0,0,1,-4,-3,0,1
49.34705293178558,false,0.051757812,0.8466797,0.67529297,0.6945184,0.30999726,0.8466797,0.67529297,-16,1,-3,-1,-3,2,-1,-3
49.378562927246094,false,0.018554688,0.82373047,0.6816406,0.69301516,0.32227585,0.82373047,0.6816406,-5,-3,-8,-4,2,-2,-2,-1
49.380560994148254,false,0.026855469,0.74609375,0.6123047,0.6913733,0.3332655,0.74609375,0.6123047,15,-5,-3,4,-5,2,0,1
49.407078981399536,false,0.046875,0.7651367,0.5673828,0.688984,0.34479716,0.7651367,0.5673828,1,-1,-2,-3,-1,-2,0,2
49.40905690193176,false,-0.033203125,0.8857422,0.6308594,0.6856633,0.35827342,0.8857422,0.6308594,1,-1,1,-1,2,-4,-2,1
49.43722999095917,false,-0.09277344,0.95996094,0.6328125,0.6825446,0.37066022,0.95996094,0.6328125,-9,0,0,-1,-1,-1,2,-3
49.4668790102005,false,-0.07519531,0.9746094,0.6591797,0.6803208,0.37940732,0.9746094,0.6591797,11,-5,0,-2,4,-4,-1,-2
49.468599915504456,false,-0.06542969,0.8979492,0.6040039,0.6785179,0.3858586,0.8979492,0.6040039,-16,2,0,-2,-3,0,1,-1
49.52691900730133,false,-0.04248047,0.8359375,0.5703125,0.6767582,0.3912356,0.8359375,0.5703125,-4,6,6,-1,-2,3,4,2
49.52880096435547,false,-0.08105469,0.8413086,0.57958984,0.6740338,0.39802358,0.8413086,0.57958984,2,1,-3,3,-2,-2,-4,-1
49.531009912490845,false,-0.1274414,0.9716797,0.5991211,0.6701559,0.40642697,0.9716797,0.5991211,1,-3,-1,4,-2,2,-3,-3
49.557294964790344,false,-0.12451172,1.0473633,0.5341797,0.66631746,0.41448766,1.0473633,0.5341797,-2,2,0,-1,-2,0,-3,2
49.58718395233154,false,-0.114746094,1.0385742,0.52685547,0.6645453,0.41912496,1.0385742,0.52685547,0,-4,-3,-3,1,-2,-1,-1
49.589186906814575,false,-0.099609375,0.9604492,0.50439453,0.6642381,0.42150402,0.9604492,0.50439453,-1,-4,1,0,-4,-2,-1,-4
49.617427945137024,false,-0.087890625,0.9663086,0.5078125,0.6643254,0.42341283,0.9663086,0.5078125,-1,0,-1,-8,-2,-1,-1,-2
49.6469908952713,false,-0.11279297,1.0473633,0.5522461,0.6650503,0.42511705,1.0473633,0.5522461,1,-2,-7,-5,-2,-4,-3,-2
49.64860796928406,false,-0.09326172,1.0708008,0.56347656,0.667315,0.42451075,1.0708008,0.56347656,0,-4,-5,-3,0,-2,-2,-1
49.67720293998718,false,-0.045410156,1.0449219,0.5957031,0.6713521,0.4204267,1.0449219,0.5957031,-3,5,-5,2,0,2,-1,-4
49.70715594291687,false,-0.028320312,1.0244141,0.60839844,0.676025,0.41479468,1.0244141,0.60839844,-1,-3,6,1,0,0,-1,2
49.70865297317505,false,-0.019042969,1.0058594,0.62890625,0.68155926,0.40745857,1.0058594,0.62890625,1,0,-1,-3,-3,0,0,0
49.73772096633911,false,-0.0043945312,1.0180664,0.63623047,0.6875687,0.39838094,1.0180664,0.63623047,-1,0,2,1,-3,0,-2,-1
49.767544984817505,false,0.022949219,1.0522461,0.6464844,0.693803,0.38788757,1.0522461,0.6464844,3,0,-6,-1,0,1,2,2
49.769112944602966,false,0.048339844,1.0371094,0.6328125,0.700889,0.375073,1.0371094,0.6328125,-2,-2,-2,-1,1,0,-1,0
49.79750192165375,false,0.07519531,1.0073242,0.6455078,0.70862544,0.359928,1.0073242,0.6455078,-1,-3,-1,-2,-1,-3,-3,0
49.827088952064514,false,0.10449219,0.97216797,0.6357422,0.71668243,0.34277707,0.97216797,0.6357422,-4,-5,4,-1,2,-2,-1,0
49.85856795310974,false,0.14013672,0.9042969,0.6323242,0.7248531,0.32421857,0.9042969,0.6323242,-1,0,-6,-6,2,-2,-2,-1
49.860747933387756,false,0.17529297,0.8881836,0.6113281,0.7326164,0.3047533,0.8881836,0.6113281,0,3,8,3,-2,2,1,-2
49.88726592063904,false,0.21777344,0.8911133,0.61083984,0.74020827,0.28465793,0.8911133,0.61083984,-1,-5,-2,-4,-3,0,0,0
49.889333963394165,false,0.22998047,0.8535156,0.5961914,0.7478418,0.26323688,0.8535156,0.5961914,1,-1,-1,-1,2,1,-1,-5
49.91775691509247,false,0.27929688,0.81347656,0.5551758,0.75500435,0.24090558,0.81347656,0.5551758,-4,-1,1,1,-2,-3,-2,-2
49.97724199295044,false,0.33007812,0.71875,0.53125,0.76190424,0.21820135,0.71875,0.53125,0,-3,-1,0,-6,-3,-2,1
49.97953391075134,false,0.34326172,0.66552734,0.5517578,0.7681963,0.19629104,0.66552734,0.5517578,4,1,0,-2,0,1,1,1
49.981740951538086,false,0.39013672,0.63623047,0.53125,0.7737555,0.1751738,0.63623047,0.53125,-3,-2,-5,1,-1,-3,-1,-2
50.036884903907776,false,0.4375,0.60839844,0.52441406,0.77878916,0.1553306,0.60839844,0.52441406,0,0,-1,2,7,2,1,4
50.03790092468262,false,0.46679688,0.56933594,0.5263672,0.7834945,0.13616703,0.56933594,0.5263672,6,-3,-2,-2,-4,-3,0,1
50.040082931518555,false,0.5151367,0.54785156,0.5366211,0.78764856,0.118528746,0.54785156,0.5366211,0,-3,1,-1,-2,2,1,-4
50.066813945770264,false,0.56933594,0.55126953,0.56884766,0.7918793,0.10205196,0.55126953,0.56884766,0,1,-6,-3,3,-3,-1,0
50.06862795352936,false,0.6064453,0.54345703,0.59472656,0.7965166,0.086609736,0.54345703,0.59472656,-1,1,0,4,0,4,-1,-4
50.09724497795105,false,0.61621094,0.5371094,0.60009766,0.80103743,0.07098495,0.5371094,0.60009766,2,1,1,1,0,-3,-4,0
50.12694597244263,false,0.6298828,0.47265625,0.58496094,0.8054056,0.053526882,0.47265625,0.58496094,2,-2,-6,-3,-3,-3,-4,5
50.128580927848816,false,0.64453125,0.43652344,0.57470703,0.80921036,0.0354617,0.43652344,0.57470703,-2,-3,-8,-4,-1,0,2,-3
50.157402992248535,false,0.66064453,0.4428711,0.54003906,0.8124587,0.019348616,0.4428711,0.54003906,-1,-2,-6,-8,-2,0,1,0
50.187020897865295,true,0.68066406,0.42138672,0.5097656,0.81604046,0.0017089852,0.42138672,0.5097656,0,-7,-22,2,2,-1,-2,2
50.18925094604492,true,0.6777344,0.3383789,0.48535156,0.81888527,-0.016967287,0.3383789,0.48535156,-2,3,-1,-5,2,-3,2,-1
50.217254996299744,true,0.6430664,0.31884766,0.5283203,0.8214707,-0.03363031,0.31884766,0.5283203,-1,10,15,5,-2,1,0,-2
50.247056007385254,true,0.69091797,0.28515625,0.47216797,0.8237847,-0.048827723,0.28515625,0.47216797,-2,-7,-5,-1,-1,-1,2,0
50.249239921569824,true,0.67871094,0.2626953,0.4741211,0.8262041,-0.063657455,0.2626953,0.4741211,-4,2,10,2,-4,0,-4,-4
50.27744901180267,true,0.66503906,0.1977539,0.50683594,0.82862246,-0.078247935,0.1977539,0.50683594,-3,-8,10,4,-1,-3,-1,2
50.30666697025299,true,0.68896484,0.123046875,0.48388672,0.830733,-0.09234435,0.123046875,0.48388672,3,3,8,2,-1,1,2,-2
50.308207988739014,true,0.7265625,0.11230469,0.50927734,0.83288413,-0.10467509,0.11230469,0.50927734,-5,-17,-15,1,-3,0,-5,-3
50.336933970451355,true,0.73583984,0.06738281,0.47216797,0.8347512,-0.11620723,0.06738281,0.47216797,-1,0,-3,-3,1,-1,-5,-1
50.3667049407959,true,0.76220703,0.00048828125,0.4765625,0.83651143,-0.1275062,0.00048828125,0.4765625,1,4,-14,-3,0,-2,-2,-2
50.36855590343475,true,0.77197266,-0.1015625,0.43652344,0.8382632,-0.13806258,-0.1015625,0.43652344,1,1,3,-2,-4,-1,1,0
50.42786693572998,true,0.78271484,-0.18408203,0.40283203,0.84016716,-0.14642651,-0.18408203,0.40283203,-5,-4,2,-8,-5,-6,-1,1
50.42949998378754,true,0.77441406,-0.21875,0.33691406,0.84192294,-0.15112376,-0.21875,0.33691406,-3,-4,0,-1,-5,-1,1,-3
50.48736000061035,true,0.72753906,-0.3251953,0.24316406,0.8437363,-0.15520988,-0.3251953,0.24316406,3,-1,-1,-10,1,-1,0,1
50.489681005477905,true,0.7597656,-0.3310547,0.20458984,0.84361434,-0.15264647,-0.3310547,0.20458984,0,7,4,6,5,7,6,-4
50.51712095737457,true,0.7270508,-0.31347656,0.1928711,0.8450947,-0.13147002,-0.31347656,0.1928711,3,-2,-16,-4,-1,1,-2,-12
50.54715096950531,true,0.77783203,-0.36376953,0.18554688,0.8479646,-0.107605375,-0.36376953,0.18554688,-4,4,6,4,-4,1,-8,17
50.54940891265869,true,0.7895508,-0.40771484,0.25585938,0.85164964,-0.075197615,-0.40771484,0.25585938,2,-5,6,-1,-3,-4,-1,18
50.577295899391174,true,0.70410156,-0.3881836,0.43798828,0.8552621,-0.032530844,-0.3881836,0.43798828,-1,0,-6,-7,-2,18,22,48
50.63733100891113,true,0.49023438,-0.16601562,0.8544922,0.8568128,0.020996124,-0.16601562,0.8544922,-6,3,10,1,-5,33,86,-79
50.6396369934082,true,0.1352539,0.11230469,1.171875,0.851415,0.07787853,0.11230469,1.171875,41,7,35,3,3,-44,-46,39
50.66777992248535,true,0.6796875,0.39013672,0.8076172,0.8143192,0.19567586,0.39013672,0.8076172,-23,-19,-21,5,-2,20,9,26
50.67002499103546,true,0.45117188,0.068847656,-0.33789062,0.7914406,0.24957204,0.068847656,-0.33789062,10,23,30,8,-9,-1,3,-28
50.69802498817444,true,-0.9267578,2.3544922,-0.17138672,0.7619723,0.3242838,2.3544922,-0.17138672,-18,5,-7,25,-103,-114,12,-59
50.72669792175293,true,-1.3588867,3.1381836,0.17382812,0.75886405,0.34766263,3.1381836,0.17382812,-39,-5,-34,-67,107,109,-17,82
50.72877299785614,true,-0.5805664,1.9057617,0.66064453,0.7662935,0.33367798,1.9057617,0.66064453,-39,-19,-18,-19,-35,8,20,45
50.757497906684875,true,0.37353516,0.95654297,0.6191406,0.7742537,0.31488964,0.95654297,0.6191406,-85,3,-4,27,28,-40,-38,-85
50.78673696517944,true,0.7216797,0.62402344,0.86083984,0.7822707,0.2999203,0.62402344,0.86083984,89,-6,-4,-1,27,38,47,28
50.78885900974274,true,0.36572266,0.6533203,0.859375,0.78108394,0.30451104,0.6533203,0.859375,24,-3,17,2,8,6,-30,-15
50.81731593608856,true,0.10839844,0.98583984,0.75146484,0.77761877,0.31452665,0.98583984,0.75146484,12,-1,-3,1,-12,-10,-8,-20
50.84690999984741,true,0.0043945312,0.99072266,0.67333984,0.7754156,0.31782028,0.99072266,0.67333984,16,0,-10,-4,-4,-14,-25,-11
50.84865891933441,true,0.087402344,0.87841797,0.67089844,0.77557814,0.31616393,0.87841797,0.67089844,1,5,9,3,-2,-3,3,-5
50.877232909202576,true,0.11035156,0.8339844,0.6748047,0.7763818,0.31384867,0.8339844,0.6748047,-8,2,5,-2,2,0,2,4
50.90766489505768,true,0.095703125,0.8041992,0.64697266,0.7769938,0.31220138,0.8041992,0.64697266,1,-7,-8,2,0,1,-2,-2
50.909855008125305,true,0.08984375,0.7832031,0.6347656,0.777653,0.31073162,0.7832031,0.6347656,6,2,9,0,2,-4,-3,-3
50.93726193904877,true,0.10595703,0.7817383,0.6123047,0.77822393,0.3095195,0.7817383,0.6123047,-1,8,12,-1,-6,-1,-2,-3
50.96687591075897,true,0.123535156,0.77783203,0.5834961,0.77874094,0.30791977,0.77783203,0.5834961,-4,-1,-9,-3,-3,-6,-4,-10
50.969066977500916,true,0.123535156,0.77490234,0.59472656,0.77937573,0.30548796,0.77490234,0.59472656,-7,-4,-3,1,-2,1,3,-9
50.99733591079712,true,0.11621094,0.77246094,0.6254883,0.7798608,0.30322832,0.77246094,0.6254883,-6,-4,-11,-3,-3,2,-2,-5
51.02676498889923,true,0.12109375,0.7583008,0.61816406,0.78002495,0.30145094,0.7583008,0.61816406,-2,-3,-1,3,0,3,3,-2
51.02891194820404,true,0.1303711,0.78125,0.6074219,0.77972126,0.30047497,0.78125,0.6074219,-1,2,-7,0,2,-1,-4,-4
51.05764293670654,true,0.13574219,0.8071289,0.60253906,0.77931035,0.2998709,0.8071289,0.60253906,3,2,6,1,-1,2,2,1
51.08702099323273,false,0.115722656,0.8129883,0.625,0.7791961,0.29859215,0.8129883,0.625,0,4,2,-5,-5,-3,-2,2
51.08881592750549,false,0.115722656,0.7939453,0.6352539,0.7791803,0.29669398,0.7939453,0.6352539,4,-2,7,0,-4,-2,-2,2
51.11742091178894,false,0.13378906,0.79052734,0.63427734,0.77925766,0.29450288,0.79052734,0.63427734,-5,-3,-9,2,-1,-4,-4,-2
51.146912932395935,false,0.13964844,0.7861328,0.62353516,0.7794584,0.29210618,0.7861328,0.62353516,-1,-5,2,-1,0,-1,-1,1
51.14855897426605,false,0.13916016,0.7602539,0.62646484,0.7798146,0.28950068,0.7602539,0.62646484,2,-2,0,-3,-2,-3,-3,0
51.177350997924805,false,0.14550781,0.7504883,0.6274414,0.7800938,0.28723273,0.7504883,0.6274414,0,1,1,2,1,0,1,-2
51.20705592632294,false,0.14697266,0.7631836,0.63183594,0.7802413,0.28504476,0.7631836,0.63183594,-6,0,-2,1,-2,0,0,-1
51.20914089679718,false,0.18066406,0.7636719,0.61865234,0.78040004,0.28253338,0.7636719,0.61865234,-1,-1,-4,-2,1,3,-2,-2
51.23746597766876,false,0.22314453,0.7529297,0.6171875,0.7809488,0.27960348,0.7529297,0.6171875,-5,0,-3,-1,-1,-4,-3,1
51.267297983169556,false,0.24121094,0.7416992,0.61621094,0.78162533,0.2765535,0.7416992,0.61621094,1,4,-4,1,2,-2,-2,-3
51.2691890001297,false,0.24609375,0.7602539,0.5986328,0.7820987,0.27404583,0.7602539,0.5986328,-3,1,-3,-2,-2,0,-2,2
51.29726696014404,false,0.22265625,0.7836914,0.6118164,0.7827854,0.27154872,0.7836914,0.6118164,1,-7,-2,-1,2,-3,-1,0
51.35715591907501,false,0.21191406,0.7714844,0.5996094,0.78350717,0.26885948,0.7714844,0.5996094,1,1,3,2,-2,0,0,0
51.3595849275589,false,0.21875,0.7939453,0.59716797,0.78406763,0.26623875,0.7939453,0.59716797,0,-7,-6,3,-1,-3,-2,0
51.36154294013977,false,0.2524414,0.734375,0.5620117,0.78529173,0.2628829,0.734375,0.5620117,-1,0,0,-1,-2,-1,1,-2
51.38722491264343,false,0.2890625,0.70751953,0.5805664,0.78667873,0.258849,0.70751953,0.5805664,0,0,4,-1,-4,0,-1,1
51.41693997383118,false,0.3256836,0.7006836,0.55126953,0.78739476,0.25634122,0.7006836,0.55126953,0,-3,-3,-2,-2,-1,1,-1
51.4186669588089,false,0.33691406,0.6982422,0.52441406,0.7881405,0.25494176,0.6982422,0.52441406,-25,-5,-1,-1,-5,2,-2,-1
51.4477299451828,false,0.34375,0.6801758,0.5390625,0.7890156,0.2540939,0.6801758,0.5390625,4,2,-3,-5,-4,2,-2,-1
51.44984698295593,false,0.33740234,0.66748047,0.5175781,0.78968817,0.25452155,0.66748047,0.5175781,13,-1,-2,-1,2,0,-1,-3
51.50791001319885,false,0.3310547,0.6425781,0.5336914,0.79060537,0.25568175,0.6425781,0.5336914,6,0,0,-3,1,-2,-2,-1
51.5103999376297,false,0.32910156,0.6376953,0.5595703,0.79097354,0.2584901,0.6376953,0.5595703,1,-2,3,-2,-3,-1,-2,-1
51.5680969953537,false,0.38671875,0.6489258,0.56591797,0.7906562,0.2666649,0.6489258,0.56591797,-3,-1,1,-1,1,2,1,-1
51.56989896297455,false,0.37060547,0.6816406,0.56396484,0.7895019,0.272282,0.6816406,0.56396484,1,-3,0,-3,-2,0,-2,-1
51.597585916519165,false,0.35351562,0.6635742,0.5517578,0.7868772,0.28412297,0.6635742,0.5517578,-1,-2,0,2,-1,-2,1,1
51.627901911735535,false,0.328125,0.65771484,0.5463867,0.78499067,0.29059485,0.65771484,0.5463867,-1,2,0,-1,1,-2,0,0
51.63026189804077,false,0.29101562,0.70947266,0.5498047,0.7819325,0.2992596,0.70947266,0.5498047,-1,0,3,-1,-1,-3,-2,0
51.657455921173096,false,0.22949219,0.7558594,0.56689453,0.7783448,0.30878657,0.7558594,0.56689453,-1,-1,-1,-2,2,-1,0,1
51.71715795993805,false,0.2084961,0.76220703,0.54785156,0.77437806,0.31788138,0.76220703,0.54785156,-4,0,-4,2,-4,2,-2,-2
51.74837291240692,false,0.19677734,0.75146484,0.50683594,0.7699663,0.32684657,0.75146484,0.50683594,-3,-1,-2,-1,-1,1,-2,-1
51.77753698825836,false,0.1875,0.82177734,0.54541016,0.74512243,0.37256122,0.82177734,0.54541016,-3,-2,4,1,-3,0,-2,-1
51.80772793292999,false,0.17333984,0.89160156,0.54248047,0.7372563,0.3857488,0.89160156,0.54248047,0,-3,-4,-4,2,-2,-1,-1
51.81007695198059,false,0.15234375,0.9604492,0.49658203,0.72924596,0.3986805,0.9604492,0.49658203,1,-2,-1,8,8,-2,1,0
51.83754789829254,false,0.1586914,0.9873047,0.4970703,0.7223801,0.4098065,0.9873047,0.4970703,0,2,3,3,-2,-1,-2,1
51.86789894104004,false,0.13134766,0.97558594,0.56347656,0.7169924,0.41883048,0.97558594,0.56347656,0,0,0,-2,-2,0,0,1
51.870245933532715,false,0.11767578,0.95166016,0.58935547,0.7124813,0.42646337,0.95166016,0.58935547,-1,2,3,-4,-3,-2,-1,-3
51.89713895320892,false,0.13085938,0.96191406,0.5683594,0.7083207,0.43335432,0.96191406,0.5683594,-1,-3,-2,-3,-4,-2,3,-2
51.92710292339325,false,0.12988281,0.9902344,0.54296875,0.70483476,0.43933153,0.9902344,0.54296875,-2,-3,-8,-1,2,-1,1,0
51.929462909698486,false,0.11816406,1.0087891,0.5078125,0.70208806,0.44427532,1.0087891,0.5078125,1,1,-1,0,-3,-1,0,-1
51.95715892314911,false,0.10986328,0.9970703,0.5107422,0.7007392,0.4475063,0.9970703,0.5107422,-1,0,2,0,1,-2,1,0
51.987223982810974,false,0.072753906,0.94921875,0.52246094,0.7008065,0.44934136,0.94921875,0.52246094,-3,-2,-2,-2,-1,0,-2,0
51.98935294151306,false,0.0625,0.9086914,0.5185547,0.70172304,0.45007443,0.9086914,0.5185547,2,-4,2,-4,-4,-3,0,0
52.017342925071716,false,0.053710938,0.89501953,0.5292969,0.7028685,0.45061466,0.89501953,0.5292969,-1,-2,-2,-3,-4,1,-2,2
52.04707992076874,false,0.037597656,0.90283203,0.50097656,0.70349735,0.4520303,0.90283203,0.50097656,-1,-1,-2,-8,-1,-1,0,0
52.04948389530182,false,0.0043945312,0.9199219,0.49316406,0.703933,0.4540499,0.9199219,0.49316406,-3,0,1,1,-2,0,1,-1
52.07726693153381,false,-0.05126953,0.9453125,0.47851562,0.70434064,0.45635659,0.9453125,0.47851562,-1,1,-2,1,5,-1,1,-2
52.1071959733963,false,-0.07373047,0.9428711,0.4873047,0.7051502,0.4582591,0.9428711,0.4873047,-1,-1,-2,-1,-4,-2,0,-1
52.10963189601898,false,-0.08300781,0.9375,0.48632812,0.70616835,0.4600165,0.9375,0.48632812,0,-2,-1,2,1,1,-3,0
52.13707399368286,false,-0.092285156,0.9248047,0.47802734,0.70708174,0.46190718,0.9248047,0.47802734,4,3,-2,-1,1,1,-3,-1
52.167359948158264,false,-0.10839844,0.9375,0.4711914,0.7079673,0.46388063,0.9375,0.4711914,-1,-16,-1,2,0,-3,0,-1
52.16925489902496,false,-0.115722656,0.9555664,0.45947266,0.70874363,0.46600565,0.9555664,0.45947266,-2,15,-4,3,-1,-3,-1,1
52.227210998535156,false,-0.11376953,0.9604492,0.43945312,0.7098499,0.46759757,0.9604492,0.43945312,-1,1,0,-4,-2,-2,-1,0
52.228954911231995,false,-0.122558594,0.93847656,0.4428711,0.7113551,0.46849948,0.93847656,0.4428711,-4,-3,-2,-2,2,0,0,-3
52.23192095756531,false,-0.13330078,0.9140625,0.45166016,0.71294427,0.46911135,0.9140625,0.45166016,0,-5,-18,2,0,0,-2,-3
52.257075905799866,false,-0.13183594,0.90283203,0.45214844,0.7144839,0.46973076,0.90283203,0.45214844,1,-2,4,-2,-2,0,0,0
52.28682100772858,false,-0.12939453,0.90625,0.44873047,0.7155274,0.47077224,0.90625,0.44873047,2,0,0,0,-3,-1,3,-1
52.28881394863129,false,-0.12646484,0.90478516,0.44384766,0.7165059,0.47175005,0.90478516,0.44384766,-3,-4,2,0,0,-1,-1,-1
52.31789195537567,false,-0.13232422,0.9160156,0.43701172,0.7174255,0.47254622,0.9160156,0.43701172,0,-1,-4,-2,-4,0,-1,0
52.34718096256256,false,-0.13330078,0.89941406,0.4321289,0.71833706,0.47315395,0.89941406,0.4321289,0,0,3,2,-2,-3,-2,-1
52.349530935287476,false,-0.1303711,0.8935547,0.44384766,0.7191776,0.4736941,0.8935547,0.44384766,0,2,6,1,0,0,-4,2
52.3772109746933,false,-0.12890625,0.88671875,0.43066406,0.71984357,0.47448397,0.88671875,0.43066406,-1,1,1,-3,0,-1,0,3
52.40726292133331,false,-0.13183594,0.8901367,0.43701172,0.72042215,0.4752357,0.8901367,0.43701172,0,-5,0,-2,-4,-2,1,0
52.40965294837952,false,-0.11669922,0.8935547,0.4189453,0.7208221,0.47601113,0.8935547,0.4189453,-3,0,4,0,1,-1,-2,-2
52.43712294101715,false,-0.114746094,0.8876953,0.42041016,0.7213,0.47649255,0.8876953,0.42041016,-1,-2,-4,1,-2,1,-2,-4
52.467819929122925,false,-0.13085938,0.87890625,0.421875,0.7217391,0.47698867,0.87890625,0.421875,-2,1,-4,-1,0,-3,0,-3
52.47002899646759,false,-0.14257812,0.8701172,0.4296875,0.7221579,0.47741035,0.8701172,0.4296875,-2,-2,-1,-2,1,1,-3,1
52.49750590324402,false,-0.14111328,0.8535156,0.42773438,0.7226136,0.4777343,0.8535156,0.42773438,0,-1,1,-3,0,0,-1,0
52.52751696109772,false,-0.1352539,0.8442383,0.42626953,0.72290814,0.47797143,0.8442383,0.42626953,-4,0,0,-2,-2,-2,1,-1
52.52985501289368,false,-0.13769531,0.8535156,0.43017578,0.7229187,0.47834462,0.8535156,0.43017578,1,1,-4,0,2,-1,0,-1
52.55748796463013,false,-0.13916016,0.8510742,0.4326172,0.72302496,0.4783952,0.8510742,0.4326172,1,-1,0,-2,-6,2,-3,-1
52.5874969959259,false,-0.14404297,0.8442383,0.44580078,0.72345567,0.47766507,0.8442383,0.44580078,0,-2,-2,0,0,0,-1,0
52.59023296833038,false,-0.13476562,0.8378906,0.4580078,0.72434735,0.4759404,0.8378906,0.4580078,-1,-35,2,1,-5,-1,-1,-1
52.61725294589996,false,-0.12011719,0.8544922,0.46435547,0.726092,0.47285092,0.8544922,0.46435547,-2,21,-4,-6,3,1,-1,0
52.647090911865234,false,-0.12451172,0.9248047,0.4819336,0.72896105,0.46802923,0.9248047,0.4819336,-1,7,-4,-3,-2,-1,2,-2
52.6499890089035,false,-0.14160156,0.97509766,0.50683594,0.7342815,0.45973465,0.97509766,0.50683594,-6,4,1,-7,-6,-2,1,1
52.70694589614868,false,-0.1484375,0.99658203,0.5595703,0.7436696,0.44501767,0.99658203,0.5595703,3,2,-1,1,-2,-1,-1,-30
52.70892000198364,false,-0.13330078,0.99658203,0.6225586,0.7569126,0.42383686,0.99658203,0.6225586,13,1,-2,2,2,1,-1,17
52.711134910583496,false,-0.119140625,0.92041016,0.6796875,0.77210593,0.39844328,0.92041016,0.6796875,-8,-31,-13,11,1,-1,-4,10
52.737085938453674,false,-0.12109375,0.6640625,0.68847656,0.78718317,0.37171012,0.6640625,0.68847656,-7,25,5,-6,-3,0,2,15
52.76729500293732,false,-0.16064453,0.53808594,0.75927734,0.80043507,0.34711564,0.53808594,0.75927734,9,-18,-1,-1,0,0,0,-102
52.76947891712189,false,-0.25146484,0.4584961,0.828125,0.81012,0.32922378,0.4584961,0.828125,-10,2,-3,-10,-2,-2,0,97
52.79711592197418,false,-0.29736328,0.47021484,0.8676758,0.816491,0.31910107,0.47021484,0.8676758,-2,9,3,5,-2,-29,-1,-11
52.827322006225586,false,-0.31445312,0.5229492,0.8676758,0.8203836,0.31573874,0.5229492,0.8676758,-14,2,1,0,-1,-6,1,-12
52.82957589626312,false,-0.30908203,0.5776367,0.86572266,0.8234011,0.31519964,0.5776367,0.86572266,2,-1,-1,0,3,9,-6,-1
52.85707199573517,false,-0.31835938,0.6069336,0.84033203,0.82589567,0.31574592,0.6069336,0.84033203,7,-1,0,-3,0,8,0,5
52.887189984321594,false,-0.31103516,0.5654297,0.80371094,0.82868075,0.31543213,0.5654297,0.80371094,4,-1,3,1,-2,1,-1,1
52.88943099975586,false,-0.29101562,0.5493164,0.77490234,0.8314427,0.3143393,0.5493164,0.77490234,4,-2,0,-1,-3,3,2,0
52.917750000953674,false,-0.30810547,0.515625,0.7709961,0.8336392,0.31360656,0.515625,0.7709961,1,1,-3,0,0,0,0,0
52.947600960731506,false,-0.32421875,0.515625,0.77978516,0.83571506,0.31256917,0.515625,0.77978516,-2,0,-1,0,2,3,0,0
52.94988191127777,false,-0.33789062,0.47998047,0.8100586,0.83783597,0.31024405,0.47998047,0.8100586,0,2,-3,-3,-1,1,1,0
52.977603912353516,false,-0.34277344,0.4970703,0.77490234,0.839017,0.3093364,0.4970703,0.77490234,-1,-1,2,-3,0,-1,-1,1
53.007779002189636,false,-0.359375,0.49560547,0.80371094,0.8401945,0.3073897,0.49560547,0.80371094,-1,-2,-2,-2,0,1,-2,-2
53.0110809803009,false,-0.3779297,0.46826172,0.7949219,0.84101415,0.30530176,0.46826172,0.7949219,0,1,0,0,-2,-1,-1,1
53.037750005722046,false,-0.3623047,0.45117188,0.78027344,0.8412524,0.30389577,0.45117188,0.78027344,0,1,-1,3,5,-1,-1,0
53.06787395477295,false,-0.3935547,0.45458984,0.8227539,0.8408219,0.30310115,0.45458984,0.8227539,5,-9,-7,0,-2,0,3,0
53.0696359872818,false,-0.40429688,0.421875,0.8198242,0.839749,0.30298838,0.421875,0.8198242,-6,-3,1,-2,0,-1,-4,0
53.09747099876404,false,-0.39892578,0.40234375,0.80371094,0.8379195,0.30396554,0.40234375,0.80371094,-1,-5,-3,-1,-4,-3,0,2
53.1277539730072,false,-0.41015625,0.45751953,0.79296875,0.8351717,0.30695596,0.45751953,0.79296875,0,2,0,3,-1,-1,0,0
53.12989592552185,false,-0.4140625,0.49316406,0.7519531,0.83216333,0.3108558,0.49316406,0.7519531,-5,-4,-6,-1,-3,0,-1,-1
53.15709698200226,false,-0.4140625,0.51953125,0.7504883,0.8297104,0.31390324,0.51953125,0.7504883,0,3,4,-4,0,-2,0,-2
53.18727493286133,false,-0.4140625,0.58447266,0.7661133,0.827964,0.31659782,0.58447266,0.7661133,-3,0,-2,-3,-2,1,0,-3
53.189602971076965,false,-0.39111328,0.56884766,0.78271484,0.82733196,0.3172609,0.56884766,0.78271484,-7,0,-1,1,-1,-1,-3,-1
53.21712899208069,false,-0.3876953,0.51464844,0.81933594,0.82753366,0.3156811,0.51464844,0.81933594,-4,-2,-2,-2,-1,1,-1,-2
53.24735701084137,false,-0.37451172,0.4633789,0.8330078,0.82765204,0.31409273,0.4633789,0.8330078,3,-2,-1,1,0,0,-3,-4
53.24993300437927,false,-0.38671875,0.4609375,0.84375,0.8272898,0.31409425,0.4609375,0.84375,4,-1,1,0,-1,0,0,-1
53.278204917907715,false,-0.38964844,0.47314453,0.8408203,0.8267757,0.3146948,0.47314453,0.8408203,0,-1,0,-4,0,-2,-1,1
53.33792197704315,false,-0.39697266,0.4638672,0.8442383,0.8261906,0.3155589,0.4638672,0.8442383,-3,-3,-3,-2,-3,1,0,-3
53.33932292461395,false,-0.3984375,0.46142578,0.8354492,0.825565,0.31659067,0.46142578,0.8354492,1,0,1,-1,2,-1,1,-1
53.367913007736206,false,-0.39746094,0.47021484,0.8388672,0.8241591,0.3188482,0.47021484,0.8388672,-2,0,-2,2,-4,2,-1,2
53.369812965393066,false,-0.39941406,0.49072266,0.84277344,0.82348436,0.32018965,0.49072266,0.84277344,-5,1,1,0,2,0,1,0
53.39788997173309,false,-0.40722656,0.5053711,0.84033203,0.82288694,0.32159853,0.5053711,0.84033203,-1,2,-2,0,0,-1,-2,-1
53.42741894721985,false,-0.4033203,0.50878906,0.8383789,0.82258236,0.32263637,0.50878906,0.8383789,2,-5,-3,1,-4,-2,0,0
53.42984092235565,false,-0.40527344,0.50439453,0.83203125,0.82235587,0.3234368,0.50439453,0.83203125,-4,-2,-1,-2,1,-3,1,-1
53.48690700531006,false,-0.41308594,0.50878906,0.82666016,0.8221708,0.32435158,0.50878906,0.82666016,0,-1,0,-1,1,3,-1,-2
53.48867690563202,false,-0.42578125,0.5126953,0.8178711,0.8220183,0.32537717,0.5126953,0.8178711,2,-1,-2,-6,-4,-1,-1,-1
53.5179089307785,false,-0.41455078,0.49560547,0.81591797,0.82251465,0.32568553,0.49560547,0.81591797,-5,-1,-2,-4,-2,0,0,3
53.577332973480225,false,-0.41015625,0.47314453,0.8261719,0.8227831,0.3252679,0.47314453,0.8261719,-4,-3,-3,-1,-1,0,0,0
53.57951200008392,false,-0.40429688,0.49023438,0.8261719,0.82281995,0.32538038,0.49023438,0.8261719,-3,-3,-3,3,0,-1,-3,-3
53.60717296600342,false,-0.3930664,0.5136719,0.83154297,0.82287246,0.32562116,0.5136719,0.83154297,-1,4,1,0,0,2,-1,-2
53.60997998714447,false,-0.37695312,0.51464844,0.83203125,0.82307094,0.32544416,0.51464844,0.83203125,0,1,-3,-1,-3,-3,-1,1
53.637953996658325,false,-0.37890625,0.49121094,0.8588867,0.8231988,0.32532436,0.49121094,0.8588867,0,-3,0,-3,4,-2,0,-5
53.66765296459198,false,-0.375,0.46191406,0.86865234,0.8230589,0.32580557,0.46191406,0.86865234,0,-2,-3,-1,2,-4,0,-1
53.669747948646545,false,-0.38476562,0.4868164,0.89208984,0.8222767,0.32800734,0.4868164,0.89208984,-1,-3,-3,-1,-4,0,-2,-3
53.6985160112381,false,-0.390625,0.53515625,0.8886719,0.82149595,0.33057597,0.53515625,0.8886719,-1,-6,-4,-1,4,0,-2,0
53.72757589817047,false,-0.38867188,0.49023438,0.8828125,0.8204189,0.33339247,0.49023438,0.8828125,-3,0,5,-2,-3,3,-3,-5
53.73063290119171,false,-0.38085938,0.46923828,0.9086914,0.81855583,0.3378351,0.46923828,0.9086914,-4,-2,2,1,0,-3,0,0
53.75814592838287,false,-0.39941406,0.55908203,0.88183594,0.81506175,0.34612963,0.55908203,0.88183594,-2,-1,-6,0,2,0,-1,0
53.78764593601227,false,-0.37158203,0.6503906,0.8334961,0.8114156,0.35547498,0.6503906,0.8334961,-3,-3,-3,-3,-3,-1,-1,1
53.790385007858276,false,-0.3491211,0.640625,0.85302734,0.8088616,0.36231533,0.640625,0.85302734,3,2,3,-1,-2,1,0,-1
53.81782400608063,false,-0.3330078,0.65771484,0.8466797,0.80628747,0.36817002,0.65771484,0.8466797,-1,-4,-3,-3,-2,-2,-1,0
53.84729599952698,false,-0.3330078,0.71875,0.8359375,0.8036633,0.37396863,0.71875,0.8359375,-5,0,1,-2,-5,-5,-2,-1
53.84985101222992,false,-0.2734375,0.7783203,0.81689453,0.8017752,0.37818202,0.7783203,0.81689453,-2,-4,-1,0,-2,-3,0,-1
53.87771797180176,false,-0.2734375,0.8203125,0.81689453,0.8011256,0.3799624,0.8203125,0.81689453,3,3,2,3,1,-1,0,3
53.90712094306946,false,-0.2685547,0.81640625,0.81933594,0.8018731,0.37890303,0.81640625,0.81933594,5,1,6,-1,-2,-1,-1,1
53.909995913505554,false,-0.2631836,0.7739258,0.82910156,0.8033542,0.37604204,0.7739258,0.82910156,1,2,-3,-1,-1,0,-2,-3
53.967814922332764,false,-0.2290039,0.73046875,0.82470703,0.8050388,0.37249067,0.73046875,0.82470703,6,0,-4,-3,-1,2,4,2
53.96986198425293,false,-0.20214844,0.7734375,0.8105469,0.80621356,0.3701783,0.7734375,0.8105469,-32,-1,1,-4,1,0,1,2
53.99841797351837,false,-0.12792969,0.8017578,0.76953125,0.80944234,0.3641331,0.8017578,0.76953125,4,3,4,-1,0,-2,-3,-1
54.02791094779968,false,-0.09863281,0.7866211,0.7504883,0.81166214,0.35938236,0.7866211,0.7504883,1,2,1,-3,-1,0,-1,-1
54.030558943748474,false,-0.064941406,0.8076172,0.73339844,0.8140407,0.35419348,0.8076172,0.73339844,-2,-5,-14,0,-2,1,-2,-2
54.058127999305725,false,-0.022460938,0.79541016,0.73291016,0.8168298,0.34783778,0.79541016,0.73291016,5,-3,1,3,-6,-4,-2,1
54.08756399154663,false,0.028808594,0.77978516,0.7211914,0.819906,0.34040168,0.77978516,0.7211914,5,-1,1,-1,2,0,1,2
54.09043490886688,false,0.07421875,0.7714844,0.71777344,0.82338554,0.33167362,0.7714844,0.71777344,2,0,3,4,5,2,1,-1
54.118276953697205,false,0.11425781,0.7373047,0.6977539,0.8269961,0.32215554,0.7373047,0.6977539,3,-2,-5,-1,1,-1,1,-2
54.14754295349121,false,0.13964844,0.7260742,0.6665039,0.83046514,0.31238574,0.7260742,0.6665039,-7,4,0,4,2,0,0,2
54.15020990371704,false,0.1743164,0.73095703,0.65185547,0.83398724,0.30212507,0.73095703,0.65185547,3,-1,0,-11,0,0,-3,0
54.20690095424652,false,0.19091797,0.7109375,0.6455078,0.83762723,0.29143617,0.7109375,0.6455078,-2,0,-1,1,-5,-1,-2,-1
54.26706290245056,false,0.2084961,0.72021484,0.64990234,0.8412089,0.28021985,0.72021484,0.64990234,-3,-1,-1,2,-2,-1,-1,-1
54.26909101009369,false,0.2397461,0.7055664,0.6489258,0.8449319,0.26825657,0.7055664,0.6489258,-2,-2,-2,-6,4,1,1,0
54.29765594005585,false,0.3540039,0.6538086,0.6113281,0.85885006,0.21912242,0.6538086,0.6113281,-3,0,0,0,1,-1,-1,0
54.32737898826599,false,0.36328125,0.64404297,0.6357422,0.8619619,0.2074031,0.64404297,0.6357422,2,-7,-10,-6,-4,-2,-4,-6
54.32981991767883,false,0.39746094,0.58251953,0.58251953,0.86511177,0.1939696,0.58251953,0.58251953,0,-3,1,2,-1,-2,-1,-2
54.35787892341614,false,0.46044922,0.5410156,0.6044922,0.868386,0.17896308,0.5410156,0.6044922,1,-4,-7,-8,-7,-3,-4,-4
54.387102007865906,false,0.47021484,0.5214844,0.58691406,0.8713681,0.163763,0.5214844,0.58691406,0,1,-1,2,-2,-1,-2,-1
54.38977897167206,false,0.4975586,0.45166016,0.5756836,0.87422407,0.14795218,0.45166016,0.5756836,3,-1,-7,-1,-2,-3,-1,-1
54.41795289516449,false,0.54296875,0.36132812,0.52978516,0.87683064,0.13146967,0.36132812,0.52978516,26,0,-2,-1,-1,-1,-2,2
54.44714593887329,false,0.5292969,0.32958984,0.5854492,0.87940365,0.116212144,0.32958984,0.5854492,-15,1,-1,3,0,1,3,2
54.44988799095154,false,0.5292969,0.30859375,0.60546875,0.88149565,0.10266416,0.30859375,0.60546875,-16,-3,3,3,3,-1,0,1
54.47786498069763,false,0.5932617,0.2319336,0.51464844,0.88284427,0.089602835,0.2319336,0.51464844,-10,-1,-6,-5,1,1,-2,-1
54.50712192058563,false,0.6386719,0.23486328,0.5126953,0.883983,0.07788181,0.23486328,0.5126953,-3,4,5,0,3,-3,0,4
54.537203907966614,false,0.6044922,0.2084961,0.55908203,0.8853743,0.06835924,0.2084961,0.55908203,1,2,13,-5,5,3,2,-1
54.538989901542664,false,0.6352539,0.15478516,0.5288086,0.88643754,0.05890052,0.15478516,0.5288086,-2,2,8,4,0,-4,3,3
54.56711792945862,false,0.64404297,0.14013672,0.54785156,0.8875694,0.0509031,0.14013672,0.54785156,-1,1,-8,-8,-2,-3,-2,1
54.568713903427124,false,0.6430664,0.12695312,0.5703125,0.8886496,0.044679683,0.12695312,0.5703125,0,-1,3,-3,2,0,4,1
54.59708094596863,false,0.6557617,0.1274414,0.5913086,0.8896845,0.040590025,0.1274414,0.5913086,-2,0,6,12,-4,2,1,3
54.65696597099304,false,0.6743164,0.08642578,0.61621094,0.8908137,0.036743395,0.08642578,0.61621094,1,-2,-4,-6,-5,-2,-2,0
54.71727800369263,false,0.640625,0.083984375,0.6821289,0.8920291,0.034973156,0.083984375,0.6821289,-2,-5,6,-20,0,-1,-6,-11
54.71953594684601,false,0.67822266,0.115234375,0.68310547,0.89269936,0.03509518,0.115234375,0.68310547,0,1,2,-2,-2,-1,3,1
54.72131395339966,false,0.69921875,0.15478516,0.6948242,0.8931262,0.036804147,0.15478516,0.6948242,2,2,-2,-4,0,6,3,2
54.7469699382782,false,0.73779297,0.18017578,0.7836914,0.8943235,0.04180793,0.18017578,0.7836914,-1,2,3,-1,-3,-2,-2,0
54.74870300292969,false,0.74902344,0.27197266,0.7705078,0.89416695,0.044983007,0.27197266,0.7705078,-2,3,-4,2,0,-2,-1,1
54.77755391597748,false,0.7758789,0.31396484,0.74658203,0.89375806,0.046326734,0.31396484,0.74658203,0,2,1,-11,5,3,3,1
54.80700397491455,false,0.7739258,0.2709961,0.7290039,0.8934717,0.045164905,0.2709961,0.7290039,1,4,-2,-3,1,3,-2,1
54.809032917022705,false,0.7607422,0.23144531,0.73339844,0.89337903,0.042847037,0.23144531,0.73339844,-3,-3,-3,7,-3,-3,-3,2
54.83735692501068,true,0.79248047,0.23583984,0.68847656,0.89306504,0.040222105,0.23583984,0.68847656,-3,-2,-2,-1,-1,-3,-3,-7
54.867182970047,true,0.8095703,0.2368164,0.66064453,0.8927238,0.03723243,0.2368164,0.66064453,0,-1,-3,-5,0,-2,0,1
54.86929500102997,true,0.7866211,0.19335938,0.64453125,0.89267117,0.033204317,0.19335938,0.64453125,0,0,5,6,0,-2,-3,1
54.95739996433258,true,0.76953125,0.13232422,0.6303711,0.89280856,0.028380912,0.13232422,0.6303711,-5,-10,-3,-5,-3,-2,0,-9
54.959892988204956,true,0.7836914,0.076171875,0.6015625,0.89295393,0.023498787,0.076171875,0.6015625,-1,-5,1,5,-2,0,2,0
54.98677694797516,true,0.7832031,0.0073242188,0.5571289,0.89397854,0.014465277,0.0073242188,0.5571289,0,-2,2,6,1,-4,0,6
54.98917496204376,true,0.79052734,-0.016601562,0.56103516,0.8944046,0.011657655,-0.016601562,0.56103516,-1,-2,-3,-2,-3,-1,-2,-4
55.018388986587524,true,0.7753906,-0.028320312,0.56933594,0.8947954,0.011047611,-0.028320312,0.56933594,5,5,-3,-2,0,1,1,8
55.10684597492218,true,0.7739258,-0.012207031,0.5683594,0.89514,0.0117187295,-0.012207031,0.5683594,-2,1,-2,3,0,-1,1,-6
55.109513998031616,true,0.7705078,-0.013183594,0.5883789,0.89549637,0.013610667,-0.013183594,0.5883789,-4,0,-4,-5,-1,-4,-3,-4
55.11114799976349,true,0.77441406,-0.057617188,0.5473633,0.89584106,0.020081196,-0.057617188,0.5473633,-7,-5,15,-8,-3,-5,-3,2
55.13801097869873,true,0.7597656,-0.08691406,0.51464844,0.8960488,0.029967982,-0.08691406,0.51464844,-8,-7,-8,6,-2,-3,-1,15
55.16701900959015,true,0.73291016,-0.083496094,0.52246094,0.8966722,0.038025104,-0.083496094,0.52246094,1,4,6,2,-2,1,-1,-13
55.1695499420166,true,0.7128906,-0.061035156,0.54833984,0.8975071,0.05285557,-0.061035156,0.54833984,4,-1,2,0,3,-2,-8,2
55.19797897338867,true,0.66064453,-0.0034179688,0.65478516,0.8983769,0.07531742,-0.0034179688,0.65478516,28,26,4,3,5,-5,20,22
55.22718095779419,true,0.54541016,0.14111328,0.8613281,0.8979093,0.107973725,0.14111328,0.8613281,-9,0,25,-6,11,-3,56,25
55.22929096221924,true,0.2919922,0.14990234,0.9902344,0.89406055,0.14398476,0.14990234,0.9902344,1,-61,8,4,2,-10,-31,6
55.258065938949585,true,0.37548828,0.16748047,0.8964844,0.88446224,0.18536414,0.16748047,0.8964844,-18,22,-7,12,-5,2,5,-14
55.28690993785858,true,0.60791016,0.0107421875,0.27001953,0.87151515,0.23187101,0.0107421875,0.27001953,5,-2,6,-1,-18,8,-4,-11
55.28922092914581,true,0.2319336,0.7475586,0.051757812,0.8555503,0.28296575,0.7475586,0.051757812,-10,0,-47,-27,13,1,-8,-35
55.31863796710968,true,-0.45703125,2.046875,0.18652344,0.8416164,0.32873636,2.046875,0.18652344,-6,7,0,4,-69,2,-21,-18
55.34726893901825,true,-0.56103516,2.1542969,0.46484375,0.84362775,0.33026114,2.1542969,0.46484375,23,-4,-14,18,35,-8,9,69
55.3500679731369,true,-0.15136719,1.3500977,0.62060547,0.84973466,0.31652954,1.3500977,0.62060547,-17,0,-4,-12,5,4,-10,-22
55.37883400917053,true,0.29248047,0.7470703,0.6274414,0.8541384,0.3090255,0.7470703,0.6274414,-7,0,-1,9,-1,5,5,-13
55.40679097175598,true,0.5239258,0.72509766,0.68359375,0.8547319,0.3095077,0.72509766,0.68359375,6,-4,11,-8,-4,-2,-4,1
55.40920698642731,true,0.38964844,0.83691406,0.6953125,0.8521675,0.31585494,0.83691406,0.6953125,-14,-2,-15,-13,2,0,-7,-12
55.43798494338989,true,0.3022461,0.88623047,0.7133789,0.8502867,0.32049787,0.88623047,0.7133789,-2,0,-2,2,1,-5,-8,-10
55.46761393547058,true,0.27929688,0.83984375,0.69873047,0.84919226,0.3217812,0.83984375,0.69873047,5,1,5,3,4,-3,2,4
55.46938896179199,true,0.2836914,0.7734375,0.76123047,0.8497729,0.32008398,0.7734375,0.76123047,-7,4,1,-2,-5,-6,-12,-4
55.49795997142792,true,0.25439453,0.7421875,0.7392578,0.84993714,0.3192834,0.7421875,0.7392578,12,-1,-2,-1,0,9,16,-1
55.527336955070496,true,0.2319336,0.7685547,0.7216797,0.84970415,0.31989795,0.7685547,0.7216797,-1,3,9,1,2,0,-8,4
55.52936899662018,true,0.21923828,0.7993164,0.7001953,0.8496298,0.32032022,0.7993164,0.7001953,-7,-6,7,-4,2,-2,0,-3
55.558156967163086,true,0.21386719,0.79296875,0.68359375,0.8500356,0.31945762,0.79296875,0.68359375,-5,-4,-7,-4,-2,0,-3,-1
55.58723199367523,true,0.23339844,0.78222656,0.67822266,0.85059357,0.31793496,0.78222656,0.67822266,4,1,6,1,-1,1,2,3
55.58995592594147,true,0.24560547,0.7573242,0.66748047,0.8512575,0.315796,0.7573242,0.66748047,-2,1,-6,3,-4,-2,0,-2
55.61792492866516,true,0.26123047,0.7529297,0.66064453,0.85157,0.31402865,0.7529297,0.66064453,-3,-11,-7,-4,-2,-1,-5,-5
55.64675998687744,true,0.26171875,0.7661133,0.6479492,0.8514663,0.31287572,0.7661133,0.6479492,0,0,-7,1,2,-4,0,-2
55.64959692955017,true,0.2475586,0.8041992,0.67333984,0.8512331,0.31190315,0.8041992,0.67333984,0,-1,-4,-1,-3,-3,-5,-4
55.67824697494507,true,0.23583984,0.8457031,0.65185547,0.8509015,0.3109779,0.8457031,0.65185547,1,0,-3,-6,-1,-1,-3,-4
55.706697940826416,true,0.23291016,0.8564453,0.67626953,0.8510921,0.30896646,0.8564453,0.67626953,0,3,-1,1,2,-2,2,5
55.709038972854614,true,0.24023438,0.82958984,0.6616211,0.85158044,0.30603674,0.82958984,0.6616211,0,-3,1,0,-1,-1,0,-1
55.737993001937866,true,0.2685547,0.85546875,0.6591797,0.85208154,0.30280635,0.85546875,0.6591797,-1,-3,4,4,-1,1,-1,2
55.7668639421463,true,0.26123047,0.9140625,0.6459961,0.8524369,0.29987273,0.9140625,0.6459961,-2,-2,-2,-3,-1,-1,-1,-2
55.769205927848816,true,0.2788086,0.9194336,0.63964844,0.8534242,0.295848,0.9194336,0.63964844,1,-106,5,3,1,2,4,3
55.79823195934296,true,0.27148438,0.90771484,0.62841797,0.855229,0.29034573,0.90771484,0.62841797,-3,64,4,-2,-3,-2,-1,6
55.827991008758545,true,0.3022461,0.9135742,0.66796875,0.8581733,0.28064588,0.9135742,0.66796875,-2,24,4,-3,-3,2,0,-2
55.83019495010376,true,0.37841797,0.81933594,0.6484375,0.861658,0.26740268,0.81933594,0.6484375,-1,5,1,-1,1,-2,1,1
55.85814392566681,true,0.43310547,0.74609375,0.59521484,0.8647646,0.25232473,0.74609375,0.59521484,3,-5,-24,3,-7,0,-3,-3
55.886767983436584,true,0.48291016,0.7089844,0.58203125,0.86797744,0.23571682,0.7089844,0.58203125,2,20,-4,-3,-3,-5,2,-9
55.88922393321991,true,0.4658203,0.6010742,0.56689453,0.87133497,0.21807788,0.6010742,0.56689453,-2,14,9,-2,-2,2,1,-3
55.91793894767761,false,0.5126953,0.54296875,0.57373047,0.87463015,0.19824135,0.54296875,0.57373047,-42,-15,-16,2,1,0,-3,-17
55.94710290431976,false,0.5722656,0.4404297,0.5253906,0.87737715,0.17858821,0.4404297,0.5253906,19,-5,17,4,4,-1,2,25
55.949309945106506,false,0.6064453,0.35302734,0.56689453,0.8801305,0.1584479,0.35302734,0.56689453,9,-4,-10,-5,2,3,20,15
55.978302001953125,false,0.59765625,0.25927734,0.5258789,0.88223284,0.13879877,0.25927734,0.5258789,0,-1,-1,-10,1,-1,-6,11
56.00672698020935,false,0.609375,0.16259766,0.5600586,0.8839753,0.11785931,0.16259766,0.5600586,-4,-4,-2,-1,-1,-4,-10,-12
56.00904190540314,false,0.62060547,0.115722656,0.5854492,0.88519204,0.09832754,0.115722656,0.5854492,2,0,-8,1,1,0,-3,0
56.06800889968872,false,0.6743164,0.04248047,0.5727539,0.8857998,0.0795285,0.04248047,0.5727539,-1,-8,-7,-2,0,-5,-20,-24
56.07076799869537,false,0.74072266,0.03466797,0.52490234,0.88551164,0.06402686,0.03466797,0.52490234,5,31,19,0,0,0,0,-3
56.098593950271606,false,0.765625,-0.06298828,0.54248047,0.8855294,0.03863662,-0.06298828,0.54248047,3,4,5,-1,-2,-2,7,9
56.127748012542725,false,0.7680664,0.028808594,0.55078125,0.88507944,0.03161652,0.028808594,0.55078125,3,-1,-1,3,-2,0,-5,-5
56.130568981170654,false,0.7597656,0.08935547,0.5126953,0.8844858,0.026917273,0.08935547,0.5126953,-6,-9,-6,1,0,-2,-10,1
56.158414006233215,false,0.7866211,0.063964844,0.50878906,0.88398606,0.021667821,0.063964844,0.50878906,0,2,-2,-5,-2,0,6,-7
56.18738090991974,false,0.7949219,0.045898438,0.5366211,0.88350093,0.017639501,0.045898438,0.5366211,-3,-4,1,-4,0,0,2,2
56.18987500667572,false,0.7685547,0.0703125,0.5673828,0.8832359,0.016906664,0.0703125,0.5673828,-1,-3,-9,-5,-4,-2,-3,0
56.21825289726257,false,0.76464844,0.12695312,0.5708008,0.8827068,0.018677104,0.12695312,0.5708008,3,2,-2,2,2,-1,1,3
56.24756300449371,false,0.71191406,0.16601562,0.5522461,0.8822031,0.021362327,0.16601562,0.5522461,4,-1,3,-2,-5,0,0,4
56.24978196620941,false,0.65966797,0.14794922,0.56640625,0.882368,0.022582566,0.14794922,0.56640625,3,-14,-6,-8,-3,-3,15,8
56.279507994651794,false,0.68896484,0.087890625,0.5957031,0.88290197,0.021912327,0.087890625,0.5957031,2,7,4,3,2,3,4,-2
56.30751597881317,false,0.6821289,0.107421875,0.61865234,0.8833169,0.022949638,0.107421875,0.61865234,-8,-7,7,5,-3,0,-12,-11
56.309921979904175,false,0.68066406,0.10546875,0.5786133,0.8831945,0.024963826,0.10546875,0.5786133,-5,2,6,-3,1,-2,0,1
56.337960958480835,false,0.65185547,0.1381836,0.5566406,0.8827499,0.028869577,0.1381836,0.5566406,-3,0,-6,3,-2,0,-2,-3
56.367238998413086,false,0.64208984,0.14111328,0.5654297,0.8820981,0.03369209,0.14111328,0.5654297,1,-3,-15,-6,1,-2,-7,-8
56.36933195590973,false,0.67871094,0.19238281,0.60546875,0.8809532,0.039063953,0.19238281,0.60546875,4,-1,2,6,0,2,3,4
56.39788198471069,false,0.69091797,0.28955078,0.5751953,0.87877184,0.04742365,0.28955078,0.5751953,-1,2,0,0,1,1,-1,2
56.42678391933441,false,0.62890625,0.3408203,0.59277344,0.8765249,0.05584711,0.3408203,0.59277344,-2,3,0,2,3,-1,-1,1
56.42919993400574,false,0.5800781,0.3569336,0.6040039,0.8738049,0.06402776,0.3569336,0.6040039,-4,-6,-15,-10,-2,-4,-6,-6
56.458321928977966,false,0.6035156,0.35595703,0.6118164,0.87073666,0.07330399,0.35595703,0.6118164,-1,1,1,0,-6,-1,0,1
56.487300992012024,false,0.6142578,0.41015625,0.6635742,0.86775655,0.08410836,0.41015625,0.6635742,0,0,-3,0,2,-1,0,4
56.48960900306702,false,0.6303711,0.4658203,0.6738281,0.86460483,0.0955179,0.4658203,0.6738281,1,1,3,-1,-1,0,1,-4
56.51833498477936,false,0.6269531,0.5292969,0.70166016,0.8612008,0.10607845,0.5292969,0.70166016,-4,-6,0,-1,-1,-4,-1,-4
56.577311992645264,false,0.5864258,0.5541992,0.7055664,0.85722417,0.11504931,0.5541992,0.7055664,-5,-2,5,2,-1,0,-1,0
56.579187989234924,false,0.5991211,0.49023438,0.65625,0.852697,0.12152611,0.49023438,0.65625,3,1,2,0,1,-1,-1,-2
56.581660985946655,false,0.6064453,0.5083008,0.640625,0.8475384,0.12921207,0.5083008,0.640625,0,-1,-6,-1,-2,0,-2,-2
56.63703989982605,false,0.60498047,0.53759766,0.6074219,0.84182143,0.13873696,0.53759766,0.6074219,1,-2,1,-3,-2,1,2,0
56.63796401023865,false,0.63183594,0.5571289,0.60595703,0.83571357,0.14844109,0.5571289,0.60595703,0,4,1,-2,-4,1,-1,-1
56.640217900276184,false,0.63378906,0.58203125,0.61572266,0.82907015,0.15796463,0.58203125,0.61572266,1,1,0,1,-2,1,1,2
56.66713094711304,false,0.6508789,0.5966797,0.61035156,0.82197106,0.16687226,0.5966797,0.61035156,-3,1,1,-2,1,-1,-1,-1
56.66905200481415,false,0.6489258,0.6381836,0.6088867,0.8145751,0.17498778,0.6381836,0.6088867,3,0,-5,-1,-3,-1,2,2
56.757025957107544,false,0.6777344,0.6254883,0.58496094,0.80693996,0.18218862,0.6254883,0.58496094,2,0,1,2,-2,0,-4,-3
56.75877499580383,false,0.6933594,0.6328125,0.5722656,0.7993078,0.18884075,0.6328125,0.5722656,-4,-2,5,1,-2,-2,-2,0
56.786972999572754,false,0.6308594,0.69677734,0.57128906,0.7780887,0.21368752,0.69677734,0.57128906,1,0,-3,0,1,-1,0,0
56.78934192657471,false,0.59228516,0.71972656,0.60791016,0.7726314,0.22130986,0.71972656,0.60791016,-5,-3,-2,1,1,-1,1,0
56.81807494163513,false,0.5908203,0.7158203,0.59228516,0.7679908,0.22704647,0.7158203,0.59228516,2,-3,-3,0,-3,-4,0,-1
56.8480190038681,false,0.5776367,0.7368164,0.5883789,0.7640393,0.23199499,0.7368164,0.5883789,1,0,1,1,1,0,-1,1
56.85045099258423,false,0.5649414,0.7480469,0.5854492,0.7609778,0.23626444,0.7480469,0.5854492,-7,-7,-5,-4,-1,-3,-4,-2
56.87822091579437,false,0.51708984,0.73876953,0.59521484,0.7591647,0.23987114,0.73876953,0.59521484,-1,-2,-3,1,-1,-1,0,-1
56.906975984573364,false,0.47998047,0.7475586,0.60791016,0.7581154,0.24322437,0.7475586,0.60791016,0,-3,0,-1,-4,-2,0,1
56.9091659784317,false,0.4609375,0.74072266,0.60546875,0.7577518,0.24633801,0.74072266,0.60546875,2,2,-4,-4,3,0,0,-4
56.93788993358612,false,0.4423828,0.7675781,0.6035156,0.75763863,0.24951476,0.7675781,0.6035156,1,-3,0,0,4,0,-1,0
56.966882944107056,false,0.4272461,0.7553711,0.5878906,0.7579507,0.25177538,0.7553711,0.5878906,-4,-5,-13,2,-2,1,1,1
56.96920394897461,false,0.4111328,0.7597656,0.5834961,0.7586259,0.25330257,0.7597656,0.5834961,2,2,3,-2,-2,0,-2,2
56.99822795391083,false,0.3852539,0.7661133,0.57470703,0.7593935,0.25488085,0.7661133,0.57470703,-1,-2,-4,0,-1,0,-3,0
57.027328968048096,false,0.36035156,0.765625,0.5649414,0.76023823,0.25628135,0.765625,0.5649414,-4,-2,2,-1,0,-4,-2,0
57.02983593940735,false,0.33935547,0.7788086,0.57470703,0.76092666,0.25787398,0.7788086,0.57470703,-2,2,1,0,1,-2,-1,0
57.08734595775604,false,0.3251953,0.7832031,0.56347656,0.76127887,0.2595172,0.7832031,0.56347656,3,1,8,0,-1,2,-2,-3
57.08956789970398,false,0.3178711,0.7915039,0.5625,0.7614038,0.26110503,0.7915039,0.5625,-1,0,-8,0,-4,2,2,0
57.11864197254181,false,0.30419922,0.7685547,0.5449219,0.7613414,0.2638511,0.7685547,0.5449219,2,0,1,1,0,1,-2,-2
57.14719498157501,false,0.3125,0.78222656,0.54589844,0.76104337,0.2654405,0.78222656,0.54589844,-7,-7,-3,1,0,0,0,-1
57.15020990371704,false,0.31689453,0.77197266,0.546875,0.76073265,0.2670865,0.77197266,0.546875,3,-3,0,0,-6,-2,-1,-1
57.17790496349335,false,0.31347656,0.78027344,0.5473633,0.7603718,0.26873633,0.78027344,0.5473633,0,2,3,-3,-2,-1,-2,0
57.207387924194336,false,0.31396484,0.76904297,0.5415039,0.7600635,0.2703221,0.76904297,0.5415039,1,0,0,-3,0,-1,2,0
57.20985198020935,false,0.3100586,0.7866211,0.5395508,0.7595858,0.27203485,0.7866211,0.5395508,-4,-3,-8,0,-1,-2,-2,1
57.23793697357178,false,0.30615234,0.79296875,0.5463867,0.7591493,0.27374053,0.79296875,0.5463867,0,-1,-2,1,-5,-1,2,2
57.267435908317566,false,0.30517578,0.7895508,0.5527344,0.7588008,0.27502868,0.7895508,0.5527344,-3,2,5,0,-1,-1,-1,-3
57.26980400085449,false,0.31201172,0.7783203,0.55078125,0.7584348,0.27600533,0.7783203,0.55078125,2,-1,-1,-4,-4,1,-1,1
57.2977010011673,false,0.31152344,0.7788086,0.55371094,0.75805205,0.27703688,0.7788086,0.55371094,-2,1,0,-1,1,-2,0,0
57.32800590991974,false,0.31640625,0.7832031,0.56640625,0.7576825,0.27801222,0.7832031,0.56640625,-1,0,1,2,1,1,-1,1
57.33047890663147,false,0.3203125,0.7832031,0.5605469,0.75725126,0.27898732,0.7832031,0.5605469,2,-1,-1,-1,-2,0,-2,-2
57.358258962631226,false,0.34277344,0.7685547,0.55859375,0.7567656,0.27996483,0.7685547,0.55859375,-4,-1,-7,-2,-2,-1,-2,2
57.38774490356445,false,0.33984375,0.7783203,0.5566406,0.75629115,0.28125167,0.7783203,0.5566406,-4,0,1,-3,-1,-1,-1,-3
57.39058494567871,false,0.32470703,0.79003906,0.5654297,0.755937,0.28253794,0.79003906,0.5654297,-4,-1,4,-2,2,-4,-4,-2
57.41855597496033,false,0.328125,0.8041992,0.5654297,0.7556302,0.28381908,0.8041992,0.5654297,1,1,0,2,2,0,2,-2
57.44762897491455,false,0.32714844,0.7973633,0.5727539,0.75560445,0.28448078,0.7973633,0.5727539,1,-1,1,-5,-2,0,-2,1
57.4514878988266,false,0.32470703,0.7885742,0.5644531,0.75562346,0.28485417,0.7885742,0.5644531,-2,-5,-7,3,4,-3,1,0
57.47796297073364,false,0.32373047,0.78515625,0.56591797,0.7556775,0.2849126,0.78515625,0.56591797,-1,-2,2,-3,2,0,0,0
57.50726592540741,false,0.31884766,0.78271484,0.5551758,0.7557424,0.28485298,0.78271484,0.5551758,3,2,2,2,-4,0,2,-1
57.509657979011536,false,0.29833984,0.78271484,0.5644531,0.7558774,0.28467476,0.78271484,0.5644531,1,-1,-2,-1,-2,-2,0,-2
57.53784692287445,false,0.29248047,0.7861328,0.5522461,0.755904,0.28453973,0.7861328,0.5522461,-4,-1,-5,-5,-3,-3,-4,-3
57.56743896007538,false,0.30664062,0.796875,0.55078125,0.7558069,0.28430498,0.796875,0.55078125,2,1,-5,1,-3,1,1,1
57.569859981536865,false,0.3017578,0.78027344,0.5551758,0.7556721,0.28387296,0.78027344,0.5551758,-2,-2,-2,1,0,-3,-1,0
57.59790301322937,false,0.29541016,0.7792969,0.5546875,0.75528795,0.28358394,0.7792969,0.5546875,-3,2,2,-2,-1,1,-4,-3
57.6272509098053,false,0.30371094,0.7675781,0.5527344,0.75483143,0.28326777,0.7675781,0.5527344,0,-2,-2,3,2,0,1,1
57.62984490394592,false,0.30566406,0.7661133,0.5527344,0.7542489,0.28319427,0.7661133,0.5527344,-4,-4,-1,0,2,-2,-5,-5
57.672133922576904,false,0.32617188,0.7558594,0.55810547,0.75358474,0.28313595,0.7558594,0.55810547,1,-1,-2,-5,3,0,3,0
57.69695997238159,false,0.34375,0.7470703,0.5546875,0.75294286,0.28296393,0.7470703,0.5546875,1,-3,-1,0,-4,0,1,0
57.71732699871063,false,0.35986328,0.7470703,0.5473633,0.7521852,0.2830155,0.7470703,0.5473633,0,-1,-1,-1,1,-1,-2,0
57.719313979148865,false,0.36914062,0.76171875,0.5444336,0.7514417,0.28301132,0.76171875,0.5444336,-1,-3,-1,-2,-5,-2,-1,-1
57.747357964515686,false,0.36669922,0.7792969,0.54541016,0.750804,0.28296298,0.7792969,0.54541016,1,0,0,4,-3,0,2,-1
57.74993896484375,false,0.35839844,0.7631836,0.54345703,0.7504754,0.28252688,0.7631836,0.54345703,-1,2,1,-2,-4,0,0,0
57.77794098854065,false,0.37109375,0.74902344,0.53808594,0.7502293,0.282221,0.74902344,0.53808594,1,3,3,1,1,0,1,2
57.807923913002014,false,0.37060547,0.76220703,0.52685547,0.7498284,0.2827192,0.76220703,0.52685547,-2,0,3,1,-2,0,-2,-4
57.809799909591675,false,0.36914062,0.7631836,0.53125,0.74970615,0.28345156,0.7631836,0.53125,0,-6,0,-6,-1,-1,-2,2
57.83784794807434,false,0.37158203,0.74609375,0.5229492,0.7496531,0.28424805,0.74609375,0.5229492,-2,-3,-1,-1,-2,-5,0,0
57.86735498905182,false,0.375,0.73583984,0.5053711,0.7495302,0.28540742,0.73583984,0.5053711,0,0,-2,-1,0,-1,-1,-3
57.86971592903137,false,0.3725586,0.7265625,0.50146484,0.74941075,0.2868733,0.7265625,0.50146484,0,0,-3,0,2,-2,0,-1
57.89802598953247,false,0.3696289,0.69921875,0.50097656,0.7493136,0.28844637,0.69921875,0.50097656,0,0,0,0,-3,0,-1,0
57.92727494239807,false,0.3623047,0.68359375,0.49023438,0.7487967,0.29083928,0.68359375,0.49023438,-1,-2,-3,-2,-3,-1,2,-3
57.929826974868774,false,0.35253906,0.70166016,0.4868164,0.74761873,0.29479945,0.70166016,0.4868164,3,0,-3,0,0,-1,-2,2
57.95811998844147,false,0.33544922,0.7128906,0.46679688,0.7457754,0.3003487,0.7128906,0.46679688,-2,-2,-2,1,-2,-1,-2,0
57.988000988960266,false,0.33496094,0.7026367,0.44873047,0.74347216,0.30719116,0.7026367,0.44873047,0,-2,-1,1,1,0,0,0
57.99056398868561,false,0.33935547,0.7114258,0.43164062,0.74048257,0.31567556,0.7114258,0.43164062,-1,1,3,-3,2,0,1,1
58.017897963523865,false,0.32373047,0.7675781,0.42773438,0.7366383,0.32660133,0.7675781,0.42773438,-3,1,-1,2,-4,-1,0,0
58.04715597629547,false,0.29736328,0.86376953,0.43310547,0.7322621,0.33936626,0.86376953,0.43310547,-3,-5,-4,-4,1,-1,0,-3
58.05002796649933,false,0.27734375,0.9267578,0.43017578,0.72828513,0.3517522,0.9267578,0.43017578,0,-1,-3,-1,1,2,0,-1
58.078067898750305,false,0.25830078,0.87939453,0.42285156,0.7251537,0.3628515,0.87939453,0.42285156,-10,-1,0,0,-1,-3,-1,-2
58.10715591907501,false,0.25927734,0.8286133,0.4140625,0.72216505,0.37359467,0.8286133,0.4140625,10,-5,-1,-2,-3,-1,1,-1
58.10965692996979,false,0.24853516,0.8149414,0.4033203,0.7180847,0.3870272,0.8149414,0.4033203,-2,2,3,-12,-3,0,-4,-2
58.16748297214508,false,0.19238281,0.84472656,0.3984375,0.7130714,0.40270868,0.84472656,0.3984375,-8,-1,-2,2,-2,-8,-8,4
58.19747495651245,false,0.14648438,0.8276367,0.4272461,0.7089175,0.417416,0.8276367,0.4272461,20,1,-4,-8,5,-3,-4,-1
58.201148986816406,false,0.029296875,1.0117188,0.35302734,0.6974494,0.4440922,1.0117188,0.35302734,-9,10,0,7,0,3,4,-3
58.286765933036804,false,0.08984375,1.1166992,0.25732422,0.69226444,0.45624024,1.1166992,0.25732422,-2,15,-2,0,-15,4,-2,-3
58.28818690776825,false,0.053222656,1.0112305,0.22802734,0.69122773,0.4644196,1.0112305,0.22802734,2,-3,1,-2,6,-3,0,-1
58.290841937065125,false,-0.018554688,0.8598633,0.26220703,0.692507,0.4689956,0.8598633,0.26220703,-2,-9,-1,2,-1,1,1,-2
58.31854796409607,false,-0.23095703,1.2104492,0.390625,0.689944,0.4925556,1.2104492,0.390625,0,-1,0,-2,-2,-1,-1,0
58.34794998168945,false,-0.22265625,1.3305664,0.42285156,0.6918849,0.49645305,1.3305664,0.42285156,0,0,0,-7,-2,-1,0,-1
58.35071897506714,false,-0.2290039,1.1816406,0.4794922,0.69886786,0.49262556,1.1816406,0.4794922,0,-3,0,4,2,0,1,-3
58.37798500061035,false,-0.22558594,0.98291016,0.5131836,0.70758206,0.48474225,0.98291016,0.5131836,-1,-4,-2,-3,0,0,0,-1
58.437792897224426,false,-0.19433594,0.8071289,0.55126953,0.71515924,0.47736284,0.8071289,0.55126953,-1,-5,-1,0,-1,-6,-2,2
58.439252972602844,false,-0.17626953,0.70947266,0.5644531,0.7196252,0.47340226,0.70947266,0.5644531,0,3,-1,-2,-2,2,2,-2
58.46765697002411,false,-0.17236328,0.8569336,0.5131836,0.7179095,0.4777315,0.8569336,0.5131836,1,-4,1,0,-4,-3,0,-1
58.47005593776703,false,-0.17041016,0.98291016,0.47558594,0.71517277,0.48140034,0.98291016,0.47558594,0,-2,-2,-1,-2,-2,-2,-3
58.49789297580719,false,-0.15576172,1.0117188,0.46826172,0.7140513,0.48242256,1.0117188,0.46826172,-1,-2,-4,0,0,0,0,0
58.557838916778564,false,-0.13330078,0.93115234,0.46533203,0.71484727,0.48059317,0.93115234,0.46533203,0,0,-3,2,0,1,-2,2
58.56038999557495,false,-0.10888672,0.8588867,0.4716797,0.71589327,0.4783405,0.8588867,0.4716797,3,1,-6,3,-1,-1,0,-2
58.58777391910553,false,-0.08154297,0.88964844,0.50390625,0.71448165,0.47937286,0.88964844,0.50390625,-2,-5,-2,-1,-4,1,0,-2
58.59041392803192,false,-0.07421875,0.93652344,0.49658203,0.7127657,0.48138234,0.93652344,0.49658203,-2,3,7,-1,-1,3,1,0
58.617915987968445,false,-0.06689453,0.9482422,0.5126953,0.711479,0.48241657,0.9482422,0.5126953,-3,0,3,0,-3,-2,-2,-1
58.64716994762421,false,-0.061523438,0.9785156,0.5498047,0.7106302,0.48260355,0.9785156,0.5498047,0,-8,-9,0,1,0,-1,-2
58.650007009506226,false,-0.06933594,0.99365234,0.5649414,0.7102726,0.48181593,0.99365234,0.5649414,0,3,4,-2,-1,1,0,2
58.678138971328735,false,-0.06689453,1.0615234,0.5878906,0.7103912,0.47986045,1.0615234,0.5878906,-1,-1,5,-1,2,-1,0,0
58.707412004470825,false,-0.076171875,1.1396484,0.6069336,0.7115744,0.47603095,1.1396484,0.6069336,-1,1,-6,-1,0,-2,1,0
58.76735293865204,false,-0.078125,1.1855469,0.640625,0.7146193,0.46912912,1.1855469,0.640625,1,3,5,1,2,1,2,0
58.76964199542999,false,-0.064453125,1.1342773,0.6479492,0.7194838,0.45868006,1.1342773,0.6479492,-3,-6,-1,2,-2,0,-1,1
58.79842793941498,false,-0.0234375,1.1699219,0.60546875,0.7337585,0.42229873,1.1699219,0.60546875,2,5,0,-3,0,0,-2,-2
58.82760298252106,false,0.0126953125,1.1884766,0.57958984,0.7395842,0.40687203,1.1884766,0.57958984,-1,-1,-1,0,0,-3,-2,-6
58.83048093318939,false,0.05517578,1.1459961,0.5463867,0.74662536,0.38847956,1.1459961,0.5463867,0,3,-5,-2,-4,-1,0,5
58.858019948005676,false,0.11279297,1.1118164,0.49951172,0.75398344,0.36829403,1.1118164,0.49951172,-2,2,-2,1,1,-1,-1,-1
58.88751995563507,false,0.14013672,1.0639648,0.45996094,0.76209915,0.3457706,1.0639648,0.45996094,3,5,8,-4,-4,1,5,1
58.88995289802551,false,0.16894531,1.0209961,0.46240234,0.770499,0.32134643,1.0209961,0.46240234,1,1,-4,-1,-3,0,4,-2
58.91782891750336,false,0.21484375,0.97314453,0.4194336,0.77902436,0.29481217,0.97314453,0.4194336,-2,8,-3,-3,-2,-3,-7,1
58.947858929634094,false,0.28857422,0.89697266,0.39746094,0.78719723,0.2668548,0.89697266,0.39746094,-2,-12,-32,-4,-3,-5,-2,-6
58.95016598701477,false,0.3642578,0.83203125,0.37451172,0.79517424,0.23767336,0.83203125,0.37451172,-1,-6,1,-2,0,1,2,-2
58.977952003479004,false,0.3725586,0.7192383,0.34228516,0.80299133,0.20685145,0.7192383,0.34228516,-1,-10,4,-3,2,-4,-6,-5
59.007269978523254,false,0.4375,0.6118164,0.25878906,0.8101766,0.17468174,0.6118164,0.25878906,0,4,16,5,-1,5,8,9
59.00982594490051,false,0.47558594,0.4897461,0.26464844,0.8170149,0.1408078,0.4897461,0.26464844,-1,-3,3,3,-3,-2,-6,-14
59.039055943489075,false,0.4975586,0.30810547,0.26660156,0.8232467,0.10699522,0.30810547,0.26660156,-4,-8,4,-4,3,3,5,3
59.06795394420624,false,0.51464844,0.2084961,0.27294922,0.82806325,0.07617181,0.2084961,0.27294922,-1,6,-1,-6,-3,-5,-2,1
59.070568919181824,false,0.5566406,0.18798828,0.3017578,0.8319247,0.05004976,0.18798828,0.3017578,-3,-6,-11,5,3,0,-5,3
59.098535895347595,false,0.6044922,0.122558594,0.22509766,0.83528614,0.028504102,0.122558594,0.22509766,-5,-4,-1,1,0,1,1,-5
59.12775695323944,false,0.62353516,0.13964844,0.29003906,0.8384065,0.009949057,0.13964844,0.29003906,-2,2,-8,-1,-4,-3,-3,2
59.130584955215454,false,0.61816406,0.06542969,0.3017578,0.8415548,-0.005493178,0.06542969,0.3017578,-4,-9,-8,-17,1,-3,-4,-3
59.15892994403839,false,0.6616211,-0.068359375,0.29785156,0.84474045,-0.019592607,-0.068359375,0.29785156,-1,0,-11,1,-7,-4,-1,1
59.18871200084686,false,0.7001953,-0.111328125,0.35009766,0.8483933,-0.031067064,-0.111328125,0.35009766,-1,0,9,8,0,0,1,-1
59.191184997558594,false,0.6713867,-0.104003906,0.45458984,0.8518091,-0.039795037,-0.104003906,0.45458984,3,-2,9,-8,0,-3,-3,0
59.27750790119171,true,0.7475586,-0.1015625,0.45703125,0.8540453,-0.04656875,-0.1015625,0.45703125,6,4,-4,-4,-2,-3,-5,-4
59.281248927116394,true,0.80566406,-0.0014648438,0.49316406,0.85565585,-0.050171133,-0.0014648438,0.49316406,-3,-32,0,19,2,3,-1,-2
59.30750393867493,true,0.85058594,0.060058594,0.54003906,0.8591286,-0.046935912,0.060058594,0.54003906,5,8,7,5,3,0,2,3
59.310030937194824,true,0.86083984,-0.0073242188,0.55029297,0.8599202,-0.0465696,-0.0073242188,0.55029297,0,2,3,-7,-4,-1,-1,2
59.33860099315643,true,0.8520508,-0.046875,0.5463867,0.8604392,-0.045655705,-0.046875,0.5463867,4,11,12,0,4,1,4,3
59.368204951286316,true,0.8544922,-0.083984375,0.5341797,0.8605927,-0.04492172,-0.083984375,0.5341797,3,3,-7,-8,2,0,-1,-2
59.370749950408936,true,0.8671875,-0.13476562,0.5073242,0.860567,-0.044676244,-0.13476562,0.5073242,-1,0,-5,-4,-7,-2,0,-3
59.398621916770935,true,0.8510742,-0.17480469,0.50927734,0.8603057,-0.04583821,-0.17480469,0.50927734,4,3,3,7,3,2,-4,-22
59.42802691459656,true,0.8120117,-0.18798828,0.5126953,0.8596722,-0.04724077,-0.18798828,0.5126953,2,-4,2,4,-3,3,-7,23
59.43099796772003,true,0.7895508,-0.1508789,0.5078125,0.8582429,-0.043824654,-0.1508789,0.5078125,-6,-3,-3,-10,-6,-4,-2,-12
59.45868194103241,true,0.75,-0.16357422,0.47509766,0.85673803,-0.03716987,-0.16357422,0.47509766,-6,-4,-3,0,-2,-2,11,23
59.48788797855377,true,0.70751953,-0.20019531,0.46826172,0.85516125,-0.02508538,-0.20019531,0.46826172,-8,-16,-17,-1,4,-8,-24,-36
59.490527987480164,true,0.63964844,-0.20361328,0.53027344,0.85367525,-0.005920247,-0.20361328,0.53027344,0,-2,1,-3,-1,-14,5,32
59.518677949905396,true,0.5336914,-0.04296875,0.6894531,0.85133076,0.024658563,-0.04296875,0.6894531,12,0,-8,-5,-16,2,52,2
59.54805397987366,true,0.38916016,0.16992188,0.7890625,0.8455789,0.06762678,0.16992188,0.7890625,25,24,19,-3,10,-1,27,21
59.55070090293884,true,0.390625,0.24951172,0.7919922,0.83442444,0.11578547,0.24951172,0.7919922,19,6,-31,-4,2,-4,-82,-23
59.60802495479584,true,0.4946289,0.4580078,0.8178711,0.81682485,0.16930972,0.4580078,0.8178711,-42,-10,5,21,-2,-3,8,-36
59.610405921936035,true,0.43115234,0.3984375,0.68652344,0.7945811,0.21802457,0.3984375,0.68652344,-12,-12,-13,-5,1,2,-37,14
59.63866400718689,true,-0.44482422,1.9355469,-0.27148438,0.73814994,0.31621918,1.9355469,-0.27148438,-1,0,-34,-32,27,4,8,-1
59.66811001300812,true,-0.70751953,2.6201172,-0.0043945312,0.7321783,0.33740258,2.6201172,-0.0043945312,-56,-6,11,21,-9,-5,-25,19
59.67084300518036,true,-0.46728516,1.9487305,0.3671875,0.73707163,0.32629883,1.9487305,0.3671875,-19,-5,12,-11,-5,3,24,15
59.69908797740936,true,0.4033203,1.0991211,0.44189453,0.74291754,0.31054586,1.0991211,0.44189453,26,-4,8,-3,-16,3,7,-10
59.727338910102844,true,0.72802734,0.8251953,0.51220703,0.7493272,0.30206242,0.8251953,0.51220703,0,9,5,-15,-8,5,8,6
59.730024933815,true,0.6816406,0.9135742,0.6074219,0.74944156,0.30224243,0.9135742,0.6074219,-13,2,7,10,19,4,6,0
59.75730097293854,true,0.4243164,1.0986328,0.61621094,0.7489556,0.30523404,1.0986328,0.61621094,-9,1,-1,-3,-3,-6,-16,-21
59.78723990917206,true,0.30371094,1.1259766,0.6152344,0.749678,0.30510792,1.1259766,0.6152344,-11,5,5,0,1,-9,-1,12
59.789453983306885,true,0.26660156,1.043457,0.6430664,0.75263286,0.30023527,1.043457,0.6430664,1,6,-3,4,-2,1,1,-4
59.81744694709778,true,0.23388672,0.9628906,0.6503906,0.75669503,0.29351076,0.9628906,0.6503906,1,3,3,5,0,3,1,5
59.84734296798706,true,0.20410156,0.9501953,0.6279297,0.76078546,0.28746888,0.9501953,0.6279297,-5,-4,1,-3,-2,-2,-8,-16
59.849488973617554,true,0.20605469,0.9711914,0.57373047,0.76509583,0.28095222,0.9711914,0.57373047,3,-11,-11,-2,-4,-1,-5,-2
59.877326011657715,true,0.17529297,1.0097656,0.54541016,0.76979446,0.27320012,1.0097656,0.54541016,-1,14,9,-2,-4,5,0,3
59.93738794326782,true,0.1796875,0.9379883,0.49169922,0.77545756,0.26391804,0.9379883,0.49169922,-32,8,0,2,0,0,2,3
59.939422965049744,true,0.17041016,0.99316406,0.5048828,0.7825431,0.25085813,0.99316406,0.5048828,12,-10,-28,-12,-1,-4,-14,-6
59.96795201301575,false,0.33935547,0.8378906,0.4970703,0.7996319,0.2153348,0.8378906,0.4970703,10,-7,-11,6,-4,0,-7,-7
59.96993100643158,false,0.38330078,0.75683594,0.51123047,0.8084167,0.19415429,0.75683594,0.51123047,1,2,19,-2,4,2,7,-6
59.99742591381073,false,0.4741211,0.7006836,0.5708008,0.8167345,0.17072016,0.7006836,0.5708008,1,1,-1,-8,2,2,1,0
60.02738797664642,false,0.5175781,0.51660156,0.5698242,0.8242836,0.14624092,0.51660156,0.5698242,1,-7,-11,4,-5,-1,0,5
60.02964794635773,false,0.56933594,0.39208984,0.56640625,0.83045644,0.12304866,0.39208984,0.56640625,-5,-5,7,-2,-1,1,1,1
60.05730891227722,false,0.58935547,0.28710938,0.56591797,0.8353962,0.10241797,0.28710938,0.56591797,0,3,11,0,-3,-1,1,-3
60.08736991882324,false,0.6220703,0.2368164,0.51660156,0.83928174,0.083922066,0.2368164,0.51660156,-1,-5,-5,-2,-3,-3,1,7
60.08929491043091,false,0.66748047,0.22167969,0.5415039,0.84260863,0.06720117,0.22167969,0.5415039,4,-2,-8,1,-3,-1,-1,-4
60.11737596988678,false,0.6928711,0.10253906,0.50097656,0.84613925,0.050293498,0.10253906,0.50097656,0,4,-5,-5,0,-1,2,-1
60.147745013237,false,0.71972656,0.11621094,0.48828125,0.8488848,0.036377292,0.11621094,0.48828125,-1,-4,8,-1,-3,0,-2,-1
60.14977300167084,false,0.7714844,0.107910156,0.4736328,0.85108054,0.023559744,0.107910156,0.4736328,-3,-9,-18,1,1,-2,1,-1
60.177204966545105,false,0.7910156,0.05126953,0.45751953,0.85291237,0.01153574,0.05126953,0.45751953,-3,-2,-5,1,3,-1,-5,-1
60.20726990699768,false,0.8144531,0.024902344,0.45996094,0.85418266,0.0015869059,0.024902344,0.45996094,3,5,14,4,-1,1,9,4
60.210426926612854,false,0.7993164,0.09375,0.484375,0.8550925,-0.003723101,0.09375,0.484375,-4,-2,9,-2,0,0,-4,4
60.23797595500946,false,0.8046875,0.107421875,0.45263672,0.85578156,-0.0081787845,0.107421875,0.45263672,-4,-4,2,-1,-5,-1,6,0
60.26760292053223,false,0.7832031,0.1171875,0.47607422,0.8565086,-0.010620145,0.1171875,0.47607422,-1,-5,-4,-4,2,-2,-2,-3
60.29750597476959,false,0.78125,0.115234375,0.46728516,0.85706913,-0.013488982,0.115234375,0.46728516,3,2,-4,-1,1,1,2,4
60.29930794239044,false,0.77734375,0.15625,0.49169922,0.85750663,-0.01470988,0.15625,0.49169922,0,11,15,-1,3,1,-6,3
60.327287912368774,false,0.8183594,0.14160156,0.5,0.8581077,-0.015381118,0.14160156,0.5,-2,-6,-8,-4,0,-4,0,-7
60.32979190349579,false,0.81640625,0.1538086,0.5336914,0.8584897,-0.0150751425,0.1538086,0.5336914,-1,0,-2,-1,-1,-1,-4,-2
60.35765099525452,false,0.82177734,0.12841797,0.55371094,0.8588997,-0.0148928035,0.12841797,0.55371094,1,3,-4,0,-1,2,2,-1
60.38768196105957,false,0.8251953,0.17871094,0.56884766,0.8592176,-0.013000878,0.17871094,0.56884766,-5,-8,-2,2,-3,-2,1,-5
60.390159010887146,false,0.8232422,0.18310547,0.5600586,0.8595102,-0.011047532,0.18310547,0.5600586,0,-1,-1,-1,-3,2,-1,-4
60.41748797893524,false,0.81396484,0.1928711,0.5942383,0.8600898,-0.009643357,0.1928711,0.5942383,3,-4,-6,-2,1,-3,-2,2
60.448083996772766,false,0.78515625,0.1694336,0.6020508,0.860656,-0.008483879,0.1694336,0.6020508,-1,-1,1,1,-3,-1,-3,0
60.449636936187744,false,0.78271484,0.17333984,0.6274414,0.86125386,-0.0068968665,0.17333984,0.6274414,-1,0,0,-2,-2,-4,0,-1
60.47725296020508,false,0.77685547,0.21289062,0.6220703,0.8615098,-0.004455559,0.21289062,0.6220703,0,-1,-5,2,-3,-1,-1,-1
60.50726592540741,false,0.77685547,0.2368164,0.62890625,0.8615351,-0.0020142158,0.2368164,0.62890625,-3,1,3,-1,-1,0,-1,3
60.50940692424774,false,0.78808594,0.22851562,0.6220703,0.86145616,0.00012207116,0.22851562,0.6220703,0,1,-4,-3,-2,0,-1,-2
60.53714299201965,false,0.7792969,0.22216797,0.6274414,0.86140466,0.0026855953,0.22216797,0.6274414,0,0,1,-2,-1,-2,-3,0
60.56818497180939,false,0.75683594,0.24365234,0.6401367,0.86140895,0.005554327,0.24365234,0.6401367,-1,-7,-28,2,-4,-2,1,0
60.569923996925354,false,0.77001953,0.25341797,0.6074219,0.8610289,0.00799566,0.25341797,0.6074219,2,-2,0,-1,1,-2,0,-1
60.5978239774704,false,0.77197266,0.2763672,0.59716797,0.8605677,0.010132225,0.2763672,0.59716797,0,-6,0,-2,-1,1,0,-1
60.62732398509979,false,0.7783203,0.27783203,0.6074219,0.8602103,0.012084692,0.27783203,0.6074219,-2,1,3,2,-1,2,2,-2
60.629411935806274,false,0.7758789,0.26904297,0.6152344,0.8599946,0.013794093,0.26904297,0.6152344,-1,-1,1,-3,-3,-1,-2,-2
60.65768599510193,false,0.7709961,0.2783203,0.6113281,0.8597491,0.015442036,0.2783203,0.6113281,-1,2,6,0,-3,-4,-2,2
60.687620997428894,false,0.7783203,0.27783203,0.5986328,0.8594509,0.016784959,0.27783203,0.5986328,4,0,4,1,4,0,2,-1
60.68980300426483,false,0.77734375,0.27783203,0.59814453,0.8592048,0.017883569,0.27783203,0.59814453,-2,-12,-28,-6,-5,-4,-4,-4
60.71741592884064,false,0.7915039,0.28125,0.6020508,0.8589529,0.018493762,0.28125,0.6020508,-4,0,10,0,1,0,0,-2
60.74729800224304,false,0.77734375,0.28173828,0.61083984,0.85880786,0.018859472,0.28173828,0.61083984,-2,1,1,-2,-2,-1,0,0
60.749876976013184,false,0.77685547,0.29003906,0.6142578,0.858562,0.018981501,0.29003906,0.6142578,-2,0,4,1,-1,0,1,-1
60.77721393108368,false,0.78564453,0.28320312,0.6010742,0.85835767,0.018738234,0.28320312,0.6010742,1,-1,2,-1,-1,0,-2,2
60.80725693702698,false,0.7758789,0.27148438,0.6040039,0.85820574,0.017944135,0.27148438,0.6040039,-2,2,8,-3,-2,1,0,2
60.809348940849304,false,0.7832031,0.2680664,0.5961914,0.8580139,0.017089479,0.2680664,0.5961914,-2,-1,0,2,-1,-2,-1,-2
60.83717501163483,false,0.77490234,0.27197266,0.58496094,0.8578166,0.0165399,0.27197266,0.58496094,-1,0,-1,0,0,0,-2,1
60.86747992038727,false,0.77734375,0.27197266,0.5913086,0.85777336,0.015868869,0.27197266,0.5913086,0,-1,-2,-3,-1,-2,1,-1
60.869818925857544,false,0.78515625,0.2602539,0.5966797,0.85778576,0.014892537,0.2602539,0.5966797,-3,-3,-9,-3,-3,-2,-3,-3
60.898284912109375,false,0.7871094,0.26171875,0.59472656,0.85780734,0.014099437,0.26171875,0.59472656,-2,-1,7,0,0,0,0,1
60.928064942359924,false,0.7675781,0.26904297,0.5966797,0.85793,0.013550118,0.26904297,0.5966797,0,-1,7,2,-2,-2,-2,-2
60.93079900741577,false,0.765625,0.2553711,0.59521484,0.85809726,0.012634336,0.2553711,0.59521484,0,-1,0,-6,-2,-5,-2,-1
60.95842897891998,false,0.7661133,0.25146484,0.6064453,0.8582758,0.011718742,0.25146484,0.6064453,0,2,4,-2,-1,3,1,0
60.98780000209808,false,0.7680664,0.24316406,0.6020508,0.85842526,0.01080356,0.24316406,0.6020508,0,0,-5,2,0,-1,0,-1
60.99049198627472,false,0.7597656,0.22070312,0.59472656,0.8586052,0.00946071,0.22070312,0.59472656,2,-2,-4,1,2,-1,1,-2
