time,gesture,ax,ay,az,qw,qx,qy,qz,e0,e1,e2,e3,e4,e5,e6,e7
488.52474105358124,false,-0.99316406,-0.52246094,-0.03125,-0.37377074,-0.36492085,-0.52246094,-0.03125,-2,-3,34,14,1,0,0,-1
488.52504301071167,false,-0.95996094,-0.46923828,-0.0390625,-0.36987427,-0.3627942,-0.46923828,-0.0390625,2,-2,14,5,2,2,1,-2
488.52561807632446,false,-0.9350586,-0.47070312,-0.027832031,-0.36729074,-0.35868523,-0.47070312,-0.027832031,-1,-1,8,2,0,0,-2,-5
488.52625596523285,false,-0.9194336,-0.4892578,0.0073242188,-0.36584163,-0.35284126,-0.4892578,0.0073242188,-1,-1,-3,-3,2,1,2,-1
488.527281999588,false,-0.92578125,-0.5263672,0.0234375,-0.36498296,-0.3461235,-0.5263672,0.0234375,1,-1,1,1,0,-1,-2,-3
488.5408819913864,false,-0.91796875,-0.55566406,0.029785156,-0.36437076,-0.33928594,-0.55566406,0.029785156,-1,0,-2,-1,-1,-2,-2,0
488.54290103912354,false,-0.92041016,-0.57958984,0.024902344,-0.36350372,-0.33317107,-0.57958984,0.024902344,1,0,-2,-1,-2,-1,-1,-1
488.5720499753952,false,-0.9086914,-0.58740234,0.009765625,-0.3625395,-0.32787243,-0.58740234,0.009765625,-2,-1,-1,-1,-1,-3,-5,-4
488.60151302814484,false,-0.8808594,-0.60595703,0.0,-0.36132088,-0.3233578,-0.60595703,0.0,1,-1,-1,0,-1,-1,2,0
488.6034049987793,false,-0.8520508,-0.60058594,-0.012207031,-0.36003128,-0.3198108,-0.60058594,-0.012207031,-4,-1,-1,0,3,2,1,0
488.6326650381088,false,-0.8364258,-0.5703125,-0.026367188,-0.3591238,-0.31731555,-0.5703125,-0.026367188,0,0,-5,-2,0,-1,-1,-2
488.66130805015564,false,-0.83740234,-0.5698242,-0.037109375,-0.3588831,-0.3151824,-0.5698242,-0.037109375,-2,0,-1,-2,-3,-1,-2,-1
488.6631450653076,false,-0.8364258,-0.6010742,-0.033203125,-0.35942763,-0.3124927,-0.6010742,-0.033203125,1,-3,3,-2,-1,3,-1,-1
488.6912270784378,false,-0.85009766,-0.6074219,-0.029296875,-0.36083034,-0.30870768,-0.6074219,-0.029296875,0,-1,-1,3,1,-2,-2,-5
488.72108805179596,false,-0.92871094,-0.63671875,-0.02734375,-0.3638233,-0.3035828,-0.63671875,-0.02734375,0,0,-2,0,1,-1,1,3
488.7227920293808,false,-1.0541992,-0.6611328,0.001953125,-0.36767486,-0.2991936,-0.6611328,0.001953125,-1,1,-4,0,-1,-1,-4,2
488.75127696990967,false,-0.99365234,-0.7265625,0.024414062,-0.37016794,-0.2946085,-0.7265625,0.024414062,-2,-1,2,-1,-1,-2,0,-1
488.78115606307983,false,-0.8955078,-0.703125,0.0087890625,-0.37034318,-0.29106238,-0.703125,0.0087890625,-1,0,-1,-1,-4,-3,0,-2
488.7831300497055,false,-0.8847656,-0.6357422,-0.033203125,-0.3695496,-0.28892612,-0.6357422,-0.033203125,-1,-4,3,1,-1,0,-1,0
488.8113970756531,false,-0.85253906,-0.56689453,-0.047851562,-0.36943564,-0.2871625,-0.56689453,-0.047851562,1,-3,-3,0,-1,0,-1,0
488.84160804748535,false,-0.8095703,-0.51123047,-0.033691406,-0.36967966,-0.28484318,-0.51123047,-0.033691406,0,-1,0,0,-3,2,-2,-6
488.8447929620743,false,-0.80859375,-0.5205078,-0.0014648438,-0.36986184,-0.28148562,-0.5205078,-0.0014648438,1,1,-1,-2,0,-1,3,2
488.8713380098343,false,-0.84277344,-0.5566406,0.017578125,-0.36998904,-0.27764437,-0.5566406,0.017578125,-1,0,-3,2,1,0,-1,-3
488.9010519981384,false,-0.8803711,-0.6035156,0.03564453,-0.36981034,-0.2744128,-0.6035156,0.03564453,-2,1,-1,0,-3,-1,1,1
488.902911067009,false,-0.91503906,-0.6328125,0.038085938,-0.3688853,-0.27342921,-0.6328125,0.038085938,-1,-1,0,-4,-2,-2,-6,2
488.9316129684448,false,-0.94433594,-0.6455078,0.028808594,-0.36724827,-0.27514628,-0.6455078,0.028808594,-1,0,-3,-2,-3,-2,2,0
488.9612990617752,false,-0.9550781,-0.6347656,0.0146484375,-0.36516768,-0.27898738,-0.6347656,0.0146484375,1,-1,0,-1,-1,1,0,1
488.9630249738693,false,-0.9472656,-0.6118164,-0.0024414062,-0.3632622,-0.28379858,-0.6118164,-0.0024414062,1,-2,0,1,-1,1,-1,-1
488.9912450313568,false,-0.93359375,-0.5883789,-0.025390625,-0.36194313,-0.2885169,-0.5883789,-0.025390625,-2,-1,-1,-1,-2,0,2,-1
489.0210380554199,false,-0.9291992,-0.57470703,-0.03564453,-0.36151248,-0.29272562,-0.57470703,-0.03564453,-2,1,2,-1,1,-4,-4,-1
489.0227780342102,false,-0.921875,-0.5878906,-0.03955078,-0.361802,-0.29600874,-0.5878906,-0.03955078,-2,-1,-3,0,-1,0,-2,0
489.0516949892044,false,-0.90722656,-0.6152344,-0.016601562,-0.3622967,-0.2983943,-0.6152344,-0.016601562,1,-1,1,0,-2,-1,-1,-4
489.0814369916916,false,-0.8959961,-0.62646484,0.0,-0.3625473,-0.30053586,-0.62646484,0.0,-1,0,-2,-1,2,-2,0,-1
489.11143803596497,false,-0.8779297,-0.6166992,0.0063476562,-0.3621708,-0.30333483,-0.6166992,0.0063476562,-2,-2,-1,-2,1,-2,-3,2
489.1416150331497,false,-0.86816406,-0.61572266,0.01953125,-0.36137927,-0.30669326,-0.61572266,0.01953125,1,-1,-1,0,1,1,1,-1
489.1445560455322,false,-0.87402344,-0.6196289,0.0234375,-0.36021993,-0.31047758,-0.6196289,0.0234375,-2,0,-1,-2,3,1,1,2
489.1713330745697,false,-0.8852539,-0.62841797,0.023925781,-0.35709664,-0.3190739,-0.62841797,0.023925781,-1,-1,0,-2,-1,-2,-2,-3
489.2314100265503,false,-0.8828125,-0.6357422,0.005859375,-0.3551005,-0.32378966,-0.6357422,0.005859375,-5,-1,-1,-3,-1,3,-1,-3
489.2330939769745,false,-0.88916016,-0.6298828,-0.0068359375,-0.3532672,-0.32848722,-0.6298828,-0.0068359375,1,-1,0,1,-2,0,1,-2
489.2610659599304,false,-0.88720703,-0.609375,-0.0048828125,-0.35137188,-0.3362355,-0.609375,-0.0048828125,-2,-1,-3,0,-1,-2,2,-2
489.2920900583267,false,-0.9003906,-0.6245117,0.0043945312,-0.35130903,-0.3388582,-0.6245117,0.0043945312,0,-1,-1,-1,-2,-3,-1,2
489.2943949699402,false,-0.91015625,-0.63427734,0.0068359375,-0.35130593,-0.34105238,-0.63427734,0.0068359375,-1,0,0,4,1,-3,-1,-1
489.32105898857117,false,-0.9238281,-0.64160156,0.0043945312,-0.3510677,-0.3430112,-0.64160156,0.0043945312,2,0,-2,1,-2,0,-3,-2
489.3227880001068,false,-0.93896484,-0.6347656,-0.0087890625,-0.35052276,-0.34490758,-0.6347656,-0.0087890625,2,1,0,2,-2,0,0,3
489.3523100614548,false,-0.9482422,-0.6220703,-0.011230469,-0.3497257,-0.34661296,-0.6220703,-0.011230469,0,-3,-2,1,-2,2,-2,-2
489.3825650215149,false,-0.94628906,-0.60302734,-0.017578125,-0.3488656,-0.34788907,-0.60302734,-0.017578125,-1,-1,-1,-1,4,-2,1,1
489.38433396816254,false,-0.9428711,-0.5957031,-0.028320312,-0.34806892,-0.3485572,-0.5957031,-0.028320312,-2,-1,0,2,0,0,3,-3
489.41166400909424,false,-0.94091797,-0.58154297,-0.029296875,-0.3475289,-0.3485665,-0.58154297,-0.029296875,-3,0,0,2,0,1,0,1
489.4412580728531,false,-0.9448242,-0.5834961,-0.026367188,-0.34717178,-0.34784317,-0.5834961,-0.026367188,1,0,-2,-2,-2,-1,1,-1
489.44400703907013,false,-0.94677734,-0.5839844,-0.029296875,-0.34698176,-0.34661555,-0.5839844,-0.029296875,0,0,0,-3,-2,0,-3,2
489.47221302986145,false,-0.94091797,-0.58935547,-0.03564453,-0.3467898,-0.3449588,-0.58935547,-0.03564453,-4,-2,0,-5,3,-1,-3,-2
489.5009560585022,false,-0.9423828,-0.58984375,-0.033691406,-0.34661418,-0.3430742,-0.58984375,-0.033691406,2,-2,-1,0,-1,-1,0,2
489.5041810274124,false,-0.9321289,-0.58496094,-0.03466797,-0.34641224,-0.34104154,-0.58496094,-0.03466797,-2,-2,0,-2,3,-1,-6,-2
489.53230798244476,false,-0.92333984,-0.5805664,-0.03125,-0.34612253,-0.33898157,-0.5805664,-0.03125,-1,1,-2,-1,-3,-2,3,-1
489.56121802330017,false,-0.921875,-0.56933594,-0.03564453,-0.3459436,-0.33697152,-0.56933594,-0.03564453,1,-2,-4,2,-1,2,-3,-4
489.5631660223007,false,-0.9243164,-0.56884766,-0.041992188,-0.34587517,-0.33501127,-0.56884766,-0.041992188,-2,-2,2,-1,1,-1,0,-3
489.5919979810715,false,-0.92822266,-0.56884766,-0.03466797,-0.34600982,-0.33313134,-0.56884766,-0.03466797,-1,0,-5,-2,-2,0,1,1
489.62105107307434,false,-0.92285156,-0.5732422,-0.037109375,-0.34636757,-0.33135322,-0.5732422,-0.037109375,-1,0,1,1,0,-3,0,1
489.62326896190643,false,-0.92578125,-0.57421875,-0.034179688,-0.34704748,-0.32977444,-0.57421875,-0.034179688,2,0,0,-3,-4,-5,-4,-1
489.65258705616,false,-0.92333984,-0.58691406,-0.03857422,-0.34788322,-0.32841396,-0.58691406,-0.03857422,0,-2,-2,0,-3,0,-1,-3
489.68279898166656,false,-0.9213867,-0.59472656,-0.038085938,-0.34892803,-0.3273222,-0.59472656,-0.038085938,-1,-1,0,1,1,2,-2,0
489.6845610141754,false,-0.91748047,-0.59521484,-0.040527344,-0.3500818,-0.3265233,-0.59521484,-0.040527344,-1,-1,0,-1,5,-4,-2,-3
489.712051987648,false,-0.9199219,-0.5942383,-0.041503906,-0.35142422,-0.32603475,-0.5942383,-0.041503906,-1,-1,-1,2,-2,3,-2,1
489.7410739660263,false,-0.9223633,-0.5917969,-0.045898438,-0.3529557,-0.32573485,-0.5917969,-0.045898438,0,-1,-3,-3,-5,0,0,2
489.74355602264404,false,-0.9194336,-0.59521484,-0.04736328,-0.35447592,-0.32548556,-0.59521484,-0.04736328,-1,-1,2,-1,0,0,-1,-2
489.77205097675323,false,-0.91748047,-0.58740234,-0.044433594,-0.35613143,-0.32530943,-0.58740234,-0.044433594,0,0,2,-2,-3,-3,1,-1
489.8016359806061,false,-0.91748047,-0.5917969,-0.040039062,-0.35759857,-0.3250064,-0.5917969,-0.040039062,-1,-2,-2,2,-1,3,1,-2
489.8313989639282,false,-0.9223633,-0.59716797,-0.053222656,-0.3587578,-0.3248229,-0.59716797,-0.053222656,3,-1,-1,1,1,-1,-1,1
489.83430898189545,false,-0.91796875,-0.59521484,-0.047851562,-0.35967526,-0.3247026,-0.59521484,-0.047851562,-1,1,-2,-2,1,-2,-3,-3
489.86135506629944,false,-0.92626953,-0.5932617,-0.044921875,-0.36041626,-0.32464927,-0.5932617,-0.044921875,-3,-2,1,0,1,-2,1,0
489.86351096630096,false,-0.9291992,-0.5888672,-0.047851562,-0.36101827,-0.32464176,-0.5888672,-0.047851562,0,0,0,1,-2,1,1,0
489.8921060562134,false,-0.9301758,-0.5864258,-0.047851562,-0.36150777,-0.32458186,-0.5864258,-0.047851562,-1,-2,1,-5,-4,1,-1,-5
489.92158603668213,false,-0.9316406,-0.5839844,-0.05078125,-0.3618577,-0.32444522,-0.5839844,-0.05078125,-1,1,-1,0,-3,0,1,1
489.9238829612732,false,-0.9291992,-0.59228516,-0.05419922,-0.3619858,-0.3240844,-0.59228516,-0.05419922,-1,-1,-3,0,2,-5,1,-2
489.9521360397339,false,-0.94091797,-0.5839844,-0.0546875,-0.3621089,-0.32378015,-0.5839844,-0.0546875,-1,0,-2,-3,4,1,-1,-3
489.98138201236725,false,-0.94970703,-0.58447266,-0.061035156,-0.36217174,-0.32341558,-0.58447266,-0.061035156,-2,-2,1,-3,-2,1,0,2
489.98325204849243,false,-0.94628906,-0.5908203,-0.056152344,-0.36216244,-0.32298008,-0.5908203,-0.056152344,-2,1,1,-2,0,-2,-3,-1
490.012011051178,false,-0.93847656,-0.5908203,-0.06591797,-0.36175093,-0.32262787,-0.5908203,-0.06591797,1,0,-1,4,-2,0,1,-1
490.0412549972534,false,-0.93652344,-0.57910156,-0.0625,-0.36126357,-0.32238454,-0.57910156,-0.0625,0,-1,2,1,0,0,2,0
490.0441290140152,false,-0.93310547,-0.56396484,-0.06542969,-0.36095196,-0.3221957,-0.56396484,-0.06542969,-2,-2,0,-1,-1,-5,-2,-3
490.1025609970093,false,-0.9316406,-0.5654297,-0.05859375,-0.36088702,-0.321765,-0.5654297,-0.05859375,0,0,-2,1,-2,1,-3,-2
490.10485303401947,false,-0.93115234,-0.5786133,-0.044921875,-0.3610804,-0.32128587,-0.5786133,-0.044921875,0,-3,-4,-2,-3,0,0,0
490.13242197036743,false,-0.93652344,-0.5830078,-0.028320312,-0.36210424,-0.3207854,-0.5830078,-0.028320312,-4,-2,-5,-1,0,0,0,2
490.1615619659424,false,-0.9448242,-0.56884766,-0.00390625,-0.3640607,-0.31956777,-0.56884766,-0.00390625,2,-1,-1,-3,1,-1,-3,-1
490.1640679836273,false,-0.94970703,-0.5908203,0.011230469,-0.3668885,-0.31665573,-0.5908203,0.011230469,-1,-1,-4,-4,2,-3,2,-1
490.19207406044006,false,-0.9458008,-0.6411133,0.0087890625,-0.36956125,-0.31212822,-0.6411133,0.0087890625,1,-1,2,-1,1,0,-6,-1
490.22127306461334,false,-0.95654297,-0.7080078,0.025878906,-0.3714649,-0.30603436,-0.7080078,0.025878906,-1,0,-1,-4,-3,-1,-4,-5
490.2513129711151,false,-0.96435547,-0.7373047,0.084472656,-0.37237296,-0.298643,-0.7373047,0.084472656,-4,-2,-2,-2,-1,-2,1,4
490.2535650730133,false,-0.96240234,-0.7294922,0.08642578,-0.37200004,-0.29125255,-0.7294922,0.08642578,0,-1,-2,1,0,0,1,2
490.28147196769714,false,-0.9555664,-0.7265625,0.05908203,-0.37084487,-0.28399295,-0.7265625,0.05908203,0,-1,-1,1,1,-3,0,0
490.2839820384979,false,-0.94091797,-0.7368164,0.05908203,-0.36937806,-0.27508047,-0.7368164,0.05908203,0,-1,1,-1,-6,-1,-4,-3
490.3120880126953,false,-0.92578125,-0.7631836,0.07373047,-0.36779487,-0.26391387,-0.7631836,0.07373047,-1,-1,2,-1,-2,1,-1,-2
490.34147906303406,false,-0.9086914,-0.8125,0.08496094,-0.36552823,-0.25109085,-0.8125,0.08496094,0,0,0,1,2,-2,1,-2
490.3439990282059,false,-0.8955078,-0.8310547,0.0859375,-0.36248097,-0.23748332,-0.8310547,0.0859375,-3,-1,0,-1,1,2,-2,-1
490.37208700180054,false,-0.8886719,-0.8154297,0.08544922,-0.35943526,-0.22344923,-0.8154297,0.08544922,-1,-1,-1,1,-3,-2,0,-3
490.4013839960098,false,-0.8901367,-0.8310547,0.10986328,-0.3567429,-0.20818648,-0.8310547,0.10986328,1,-1,-4,-1,2,-1,1,1
490.4039410352707,false,-0.87402344,-0.8623047,0.123535156,-0.35393214,-0.19115633,-0.8623047,0.123535156,-2,-2,-3,-1,2,1,-2,-2
490.43211901187897,false,-0.87402344,-0.88378906,0.15185547,-0.35082036,-0.17248058,-0.88378906,0.15185547,-1,-1,-1,0,0,0,2,1
490.4615240097046,false,-0.8808594,-0.92285156,0.16992188,-0.34752226,-0.15178922,-0.92285156,0.16992188,0,-1,1,-1,4,2,-1,0
490.46401500701904,false,-0.8544922,-0.96435547,0.19384766,-0.3435524,-0.129267,-0.96435547,0.19384766,1,0,-3,-5,0,3,-1,-2
490.4924360513687,false,-0.8310547,-1.0053711,0.21777344,-0.33825156,-0.104795724,-1.0053711,0.21777344,-1,-1,2,2,-5,0,0,-1
490.5211980342865,false,-0.8203125,-1.0224609,0.26904297,-0.3317233,-0.07800228,-1.0224609,0.26904297,0,-1,-1,-7,-4,-2,-3,-1
490.5235719680786,false,-0.79589844,-1.0634766,0.27978516,-0.32415363,-0.04888854,-1.0634766,0.27978516,-1,0,-2,-1,2,-7,-2,-2
490.5525699853897,false,-0.70751953,-1.1088867,0.2915039,-0.31494012,-0.017944263,-1.1088867,0.2915039,0,0,-1,3,1,1,3,-1
490.58243000507355,false,-0.5864258,-1.1503906,0.24902344,-0.30450368,0.013244597,-1.1503906,0.24902344,-1,-3,-1,-2,-2,1,-4,-1
490.5846999883652,false,-0.51171875,-1.137207,0.22949219,-0.29302105,0.044005036,-1.137207,0.22949219,2,2,2,2,-6,1,2,3
490.61220502853394,false,-0.4453125,-1.140625,0.23828125,-0.28093937,0.07519385,-1.140625,0.23828125,1,-4,-3,5,4,-3,-1,0
490.64152705669403,false,-0.38671875,-1.0576172,0.24267578,-0.26812497,0.10662744,-1.0576172,0.24267578,-1,2,0,2,-7,1,1,1
490.6441420316696,false,-0.36572266,-1.0649414,0.26708984,-0.25531104,0.13928276,-1.0649414,0.26708984,-2,-1,-1,-3,1,-1,-2,-3
490.672101020813,false,-0.2763672,-1.027832,0.27490234,-0.24267372,0.1728501,-1.027832,0.27490234,-1,1,3,1,-2,4,2,-4
490.70130598545074,false,-0.14257812,-1.0117188,0.21826172,-0.22906603,0.20617774,-1.0117188,0.21826172,-2,0,-2,-3,-2,-1,-1,-1
490.70410907268524,false,-0.020507812,-0.98339844,0.15283203,-0.21490707,0.23865,-0.98339844,0.15283203,1,-2,-2,2,-1,2,-1,1
490.73217701911926,false,-0.012207031,-0.93603516,0.2133789,-0.20050678,0.2705163,-0.93603516,0.2133789,-4,1,-2,-2,-4,-5,-1,-4
490.7912150621414,false,0.015136719,-0.8574219,0.23730469,-0.18762574,0.3013975,-0.8574219,0.23730469,-3,-1,-4,-4,2,0,-2,0
490.79290997982025,false,0.09716797,-0.84521484,0.23876953,-0.17504731,0.33135697,-0.84521484,0.23876953,-1,-2,0,-6,-2,-5,-2,-1
490.8212580680847,false,0.19873047,-0.8618164,0.22509766,-0.15332365,0.3860558,-0.8618164,0.22509766,0,1,-2,-1,-4,-5,0,0
490.8239870071411,false,0.1616211,-0.7973633,0.24804688,-0.14447367,0.4112037,-0.7973633,0.24804688,1,1,1,0,-3,3,-1,2
490.8521670103073,false,0.20263672,-0.7348633,0.23876953,-0.1375155,0.43506902,-0.7348633,0.23876953,0,-4,-2,-6,1,-1,0,-2
490.9414780139923,false,0.25390625,-0.72802734,0.18457031,-0.13201986,0.45727822,-0.72802734,0.18457031,3,-1,-2,0,-1,4,-1,-1
490.9435920715332,false,0.2998047,-0.6870117,0.16601562,-0.12817545,0.4778503,-0.6870117,0.16601562,-1,-1,3,5,3,-2,-5,1
490.97242403030396,false,0.4321289,-0.6821289,-0.0029296875,-0.1275684,0.53749627,-0.6821289,-0.0029296875,2,4,4,0,-6,10,8,1
491.00194704532623,false,0.4326172,-0.71533203,0.01171875,-0.1309867,0.5457983,-0.71533203,0.01171875,-2,-6,-4,1,0,1,-6,0
491.00451505184174,false,0.43945312,-0.7685547,-0.022460938,-0.13556239,0.5520154,-0.7685547,-0.022460938,-1,3,-1,1,-5,-5,1,-1
491.032467007637,false,0.5185547,-0.84375,-0.0703125,-0.14099747,0.5564822,-0.84375,-0.0703125,0,3,5,-5,-5,-1,0,-4
491.0615040063858,false,0.5336914,-0.8618164,-0.05859375,-0.14703386,0.5590826,-0.8618164,-0.05859375,6,10,4,5,8,-3,-2,4
491.06383299827576,false,0.54003906,-0.8535156,-0.029296875,-0.15369251,0.56056875,-0.8535156,-0.029296875,-1,13,3,4,-2,-1,-3,0
491.09329104423523,true,0.5751953,-0.87353516,-0.083984375,-0.15966822,0.5621347,-0.87353516,-0.083984375,-2,0,2,-3,5,-9,-5,-6
491.12153804302216,true,0.60595703,-0.8613281,-0.045898438,-0.1642486,0.56373096,-0.8613281,-0.045898438,-3,-2,-3,-2,-10,-6,-4,0
491.1239950656891,true,0.5961914,-0.8510742,-0.030761719,-0.16821167,0.56524247,-0.8510742,-0.030761719,-3,-4,-5,-9,7,1,7,-6
491.1520000696182,true,0.61572266,-0.8300781,0.0107421875,-0.17151262,0.566663,-0.8300781,0.0107421875,2,-1,0,5,1,6,0,0
491.18157505989075,true,0.60058594,-0.7104492,0.026367188,-0.17536204,0.567714,-0.7104492,0.026367188,3,2,-1,-2,0,-1,-3,4
491.1840800046921,true,0.56396484,-0.63623047,0.03515625,-0.18090951,0.56811935,-0.63623047,0.03515625,-3,0,-1,0,-3,-5,-4,-7
491.21243596076965,true,0.5546875,-0.5703125,0.059570312,-0.1891468,0.5670742,-0.5703125,0.059570312,-4,0,-1,-4,-5,-5,-11,2
491.24162197113037,true,0.53125,-0.53808594,0.03466797,-0.20160335,0.56379354,-0.53808594,0.03466797,1,3,3,7,-1,5,1,3
491.2441700696945,true,0.56152344,-0.4873047,-0.04248047,-0.2177136,0.5579254,-0.4873047,-0.04248047,-5,-6,-8,-1,0,3,-1,-4
491.27203607559204,true,0.6113281,-0.41503906,-0.076171875,-0.23785752,0.5472493,-0.41503906,-0.076171875,-6,-14,-6,-6,4,1,0,1
491.30218601226807,true,0.60253906,-0.4326172,-0.083984375,-0.26026163,0.53328,-0.4326172,-0.083984375,13,10,-12,4,-16,0,8,-1
491.3045530319214,true,0.5390625,-0.62060547,-0.0703125,-0.2845455,0.51599056,-0.62060547,-0.0703125,-7,11,5,-2,-13,0,-4,-6
491.33244502544403,true,0.4375,-0.8569336,0.02734375,-0.30976433,0.4946463,-0.8569336,0.02734375,0,-41,-22,8,-7,1,-3,-16
491.36168003082275,true,0.43896484,-0.99560547,-0.040527344,-0.33808148,0.4688828,-0.99560547,-0.040527344,-2,-34,-8,13,24,2,-7,6
491.36395597457886,true,0.5161133,-1.1166992,-0.19580078,-0.36451373,0.43916214,-1.1166992,-0.19580078,8,29,18,12,-16,6,0,6
491.3921810388565,true,0.37060547,-1.0253906,-0.025390625,-0.38636842,0.40779266,-1.0253906,-0.025390625,5,29,24,2,6,-7,-47,-3
491.4214230775833,true,-0.15771484,-0.87060547,0.44482422,-0.4070507,0.37738708,-0.87060547,0.44482422,15,30,29,3,9,0,85,-2
491.42388701438904,true,-0.77197266,-0.8066406,1.0083008,-0.4286549,0.35474047,-0.8066406,1.0083008,-9,-5,-38,-29,-4,-5,-17,23
491.45220506191254,true,-0.83984375,-1.2832031,1.2177734,-0.44213483,0.34313667,-1.2832031,1.2177734,-9,6,14,-25,2,2,10,6
491.4814109802246,true,-0.40576172,-1.734375,0.8466797,-0.44710454,0.3368696,-1.734375,0.8466797,-5,0,18,2,6,8,0,-9
491.48409402370453,true,-0.10839844,-1.7143555,0.66259766,-0.44964558,0.3349606,-1.7143555,0.66259766,0,-26,-11,1,11,-7,-24,-7
491.5422489643097,true,0.049804688,-1.3964844,0.5058594,-0.45335394,0.3315929,-1.3964844,0.5058594,-9,-17,-19,-3,-2,-3,-13,-8
491.54501605033875,true,-0.08544922,-1.0380859,0.3149414,-0.4578293,0.3278231,-1.0380859,0.3149414,-3,-3,8,-5,-13,-4,-7,-10
491.5719870328903,true,-0.068847656,-1.0585938,0.26904297,-0.45709524,0.33093473,-1.0585938,0.26904297,3,-1,-1,10,-5,3,3,8
491.601459980011,true,-0.07714844,-1.0795898,0.26220703,-0.4558112,0.33288622,-1.0795898,0.26220703,5,-7,-6,0,2,-1,-7,-4
491.6041259765625,true,-0.076171875,-1.0009766,0.3310547,-0.45550516,0.33355698,-1.0009766,0.3310547,-5,0,7,-1,2,0,-1,-8
491.63229501247406,true,-0.0625,-0.9433594,0.3515625,-0.45588708,0.3336295,-0.9433594,0.3515625,-1,-4,-6,2,-1,-5,3,0
491.6623560190201,true,-0.037109375,-0.9482422,0.34521484,-0.45587343,0.3341078,-0.9482422,0.34521484,-4,3,-6,1,-2,-4,0,-4
491.6642379760742,true,-0.053222656,-0.99658203,0.39648438,-0.45550618,0.33441222,-0.99658203,0.39648438,-2,-6,-1,-7,1,1,-5,-8
491.6922559738159,true,-0.018554688,-1.015625,0.40673828,-0.45531982,0.33404362,-1.015625,0.40673828,0,-9,4,4,-5,0,-1,3
491.7213439941406,true,-0.018066406,-0.98583984,0.3984375,-0.4553206,0.33312866,-0.98583984,0.3984375,-1,4,9,5,0,1,-5,-5
491.7240560054779,true,-0.009765625,-0.96972656,0.4038086,-0.45544943,0.332096,-0.96972656,0.4038086,-5,-2,-10,-1,5,3,3,4
491.75204503536224,true,-0.016601562,-0.99121094,0.40673828,-0.45545617,0.33130744,-0.99121094,0.40673828,-7,0,-8,-6,2,-4,5,2
491.78146600723267,true,-0.0048828125,-1.0063477,0.39697266,-0.45543483,0.3306816,-1.0063477,0.39697266,6,8,5,5,5,1,-1,8
491.7840930223465,true,-0.0014648438,-1.0263672,0.37695312,-0.4556822,0.3299515,-1.0263672,0.37695312,2,6,5,2,-9,-1,-4,-6
491.81337201595306,true,-0.016601562,-1.0151367,0.36132812,-0.45593864,0.32928902,-1.0151367,0.36132812,-1,4,-6,-4,0,-1,-4,-1
491.8415470123291,true,-0.021972656,-0.99609375,0.37646484,-0.45641148,0.3287896,-0.99609375,0.37646484,5,4,-2,4,-2,-4,-2,-7
491.8440350294113,true,-0.008300781,-1.0234375,0.3798828,-0.45671877,0.3287301,-1.0234375,0.3798828,3,-2,5,4,-1,-2,3,1
491.90226006507874,true,-0.0087890625,-1.0297852,0.36376953,-0.4570391,0.32880202,-1.0297852,0.36376953,0,10,5,-4,-2,6,0,-7
491.9047200679779,true,-0.014160156,-1.0395508,0.36523438,-0.45747158,0.3288058,-1.0395508,0.36523438,-2,-8,-5,-2,3,-3,-2,-3
491.9321860074997,true,-0.023925781,-1.0332031,0.35302734,-0.45843488,0.3284911,-1.0332031,0.35302734,-2,4,0,-1,-2,-2,-3,-3
491.96147203445435,true,-0.048828125,-1.03125,0.37158203,-0.45868364,0.32892165,-1.03125,0.37158203,-4,-2,-3,1,1,-1,0,1
491.9648640155792,false,-0.06933594,-1.0556641,0.37646484,-0.45855302,0.32989207,-1.0556641,0.37646484,0,-3,0,2,-6,-3,-4,1
491.9920860528946,false,-0.08203125,-1.0458984,0.38427734,-0.45775968,0.3319063,-1.0458984,0.38427734,0,1,-2,-6,0,0,-1,-1
492.02148401737213,false,-0.08544922,-1.0463867,0.38085938,-0.45605078,0.3346529,-1.0463867,0.38085938,0,0,1,-1,-10,-1,1,1
492.05148005485535,false,-0.0703125,-1.0668945,0.3701172,-0.45323876,0.33788443,-1.0668945,0.3701172,1,-2,-4,-1,5,-1,-2,-2
492.05360996723175,false,-0.0546875,-1.1010742,0.3696289,-0.45019725,0.34076074,-1.1010742,0.3696289,2,3,0,-2,2,-1,-1,1
492.08168506622314,false,-0.041503906,-1.0966797,0.3540039,-0.44671598,0.34326148,-1.0966797,0.3540039,1,-2,-2,2,2,0,1,1
492.08444797992706,false,-0.0078125,-1.0405273,0.32373047,-0.44317755,0.34545997,-1.0405273,0.32373047,-3,1,-2,1,1,-1,2,-1
492.1123570203781,false,0.026855469,-1.0009766,0.3486328,-0.43885976,0.34840217,-1.0009766,0.3486328,0,-1,1,-4,-2,-1,-1,-3
492.1415569782257,false,0.06640625,-0.9921875,0.36523438,-0.43371996,0.35217622,-0.9921875,0.36523438,0,-3,-1,1,1,0,-2,-2
492.1440130472183,false,0.080566406,-1.0273438,0.37695312,-0.42767256,0.35632262,-1.0273438,0.37695312,2,1,-2,2,-1,0,1,-2
492.1720789670944,false,0.046875,-1.0488281,0.37841797,-0.4217025,0.3602996,-1.0488281,0.37841797,-1,0,0,0,1,0,-4,-2
492.2013829946518,false,0.047851562,-1.0302734,0.40673828,-0.4162627,0.3637721,-1.0302734,0.40673828,2,-2,-2,-2,6,1,0,0
492.203999042511,false,0.103515625,-1.0009766,0.37841797,-0.41107854,0.36701044,-1.0009766,0.37841797,-2,0,-3,-2,-1,-1,-1,-1
492.2326589822769,false,0.1381836,-1.0043945,0.34521484,-0.40569562,0.37035668,-1.0043945,0.34521484,-1,-3,2,1,-5,-2,-2,-3
492.26242196559906,false,0.14746094,-0.9897461,0.36914062,-0.39913216,0.37441146,-0.9897461,0.36914062,-5,-3,-3,-3,-7,5,1,0
492.292209982872,false,0.18066406,-0.9560547,0.35253906,-0.3920306,0.37848073,-0.9560547,0.35253906,0,0,1,4,-3,-5,-2,1
492.2943490743637,false,0.19580078,-0.9760742,0.32470703,-0.38488954,0.3820819,-0.9760742,0.32470703,-1,2,-3,-3,-4,-2,-1,-5
492.32215201854706,false,0.21679688,-0.96728516,0.3623047,-0.37738353,0.3859285,-0.96728516,0.3623047,-2,2,-1,-1,-2,2,6,-1
492.3246840238571,false,0.23828125,-0.94677734,0.36572266,-0.37019566,0.38960576,-0.94677734,0.36572266,-4,-4,-1,0,5,-6,-5,0
492.3529700040817,false,0.2211914,-0.9326172,0.36376953,-0.36365154,0.39258254,-0.9326172,0.36376953,-2,-1,-1,-1,-2,-1,-4,0
492.382719039917,false,0.22509766,-0.92578125,0.36376953,-0.35742557,0.39557296,-0.92578125,0.36376953,2,-2,3,-3,1,2,1,-4
492.38469898700714,false,0.25976562,-0.9033203,0.3466797,-0.35131124,0.39861253,-0.9033203,0.3466797,-1,-3,-1,0,2,-2,4,2
492.4129819869995,false,0.2553711,-0.9223633,0.36132812,-0.34551293,0.4012369,-0.9223633,0.36132812,-1,2,-1,-2,0,-2,1,4
492.47201097011566,false,0.27539062,-0.94140625,0.35205078,-0.3404616,0.4036344,-0.94140625,0.35205078,-1,-1,1,0,-4,-1,-2,-3
492.4742410182953,false,0.30810547,-0.9428711,0.3623047,-0.33508304,0.40557867,-0.9428711,0.3623047,-1,-2,-1,-3,-2,-1,1,-2
492.50289607048035,false,0.38867188,-0.89208984,0.3232422,-0.32287756,0.40942582,-0.89208984,0.3232422,1,1,1,3,0,-3,2,-1
492.50708198547363,false,0.38623047,-0.86572266,0.28320312,-0.31714228,0.41064918,-0.86572266,0.28320312,-1,-1,4,0,-2,0,-5,-3
492.53243696689606,false,0.37402344,-0.8300781,0.19824219,-0.31048712,0.41119558,-0.8300781,0.19824219,-7,-9,-6,-5,1,-1,-2,-3
492.56264996528625,false,0.34375,-0.80908203,0.16894531,-0.3036019,0.4102349,-0.80908203,0.16894531,1,0,-1,1,5,-1,-3,4
492.59171307086945,false,0.28271484,-0.85546875,0.17578125,-0.2976754,0.40754128,-0.85546875,0.17578125,-5,-9,-5,-2,2,0,-2,-1
492.6220819950104,false,0.24365234,-0.7885742,0.22021484,-0.2929721,0.40149385,-0.7885742,0.22021484,0,5,0,1,0,3,-4,0
492.62422001361847,false,0.24707031,-0.8383789,0.27783203,-0.29229048,0.39092094,-0.8383789,0.27783203,0,2,-3,-4,1,1,4,0
492.65273797512054,false,0.18896484,-0.7631836,0.3618164,-0.30236933,0.35894912,-0.7631836,0.3618164,1,-3,-3,-1,3,5,-5,-6
492.68240904808044,false,0.1459961,-0.75634766,0.39453125,-0.31060916,0.33990616,-0.75634766,0.39453125,3,-1,-3,7,-1,0,12,-3
492.68466007709503,false,0.16748047,-0.8066406,0.37451172,-0.319404,0.31879365,-0.8066406,0.37451172,-5,-2,-2,0,-4,-1,0,-5
492.7414300441742,false,0.11376953,-0.8486328,0.42382812,-0.32878858,0.29558626,-0.8486328,0.42382812,1,-1,0,4,-3,-3,2,-1
492.74380707740784,false,0.064453125,-0.80810547,0.42333984,-0.33966395,0.2702053,-0.80810547,0.42333984,0,-1,1,3,-3,0,-15,0
492.77276396751404,false,-0.10546875,-0.8774414,0.48583984,-0.36303538,0.21679585,-0.8774414,0.48583984,-4,0,-2,-10,2,-4,13,2
492.8020889759064,false,-0.13964844,-0.9160156,0.4477539,-0.37353545,0.19073503,-0.9160156,0.4477539,0,-2,-2,-7,-3,-3,-10,1
492.8047890663147,false,-0.15625,-0.9604492,0.42382812,-0.38152835,0.16583148,-0.9604492,0.42382812,2,0,0,-5,-1,2,7,-4
492.86112201213837,false,-0.1665039,-0.9604492,0.41259766,-0.38800308,0.1420908,-0.9604492,0.41259766,1,-1,0,-3,0,-4,-4,2
492.86306607723236,false,-0.21875,-0.95947266,0.45361328,-0.39270025,0.119201675,-0.95947266,0.45361328,-1,-3,0,-3,-3,-3,4,0
492.89206802845,false,-0.375,-1.0771484,0.5708008,-0.40093842,0.07855195,-1.0771484,0.5708008,1,0,-1,2,4,2,0,2
492.92140007019043,false,-0.34472656,-1.1293945,0.5073242,-0.40288866,0.059203453,-1.1293945,0.5073242,1,-1,-1,0,-3,0,1,-6
492.95121705532074,false,-0.3022461,-1.078125,0.4404297,-0.40288585,0.039428007,-1.078125,0.4404297,-3,-3,-3,0,-4,-1,-2,-1
492.95287096500397,false,-0.28759766,-0.9433594,0.43310547,-0.40137455,0.019104354,-0.9433594,0.43310547,2,3,0,-3,0,-2,0,-1
492.98157000541687,false,-0.3491211,-0.90478516,0.43310547,-0.39946213,-0.0019530617,-0.90478516,0.43310547,-2,3,4,0,-4,0,-1,1
493.01236307621,false,-0.484375,-0.8935547,0.51220703,-0.39674076,-0.019959113,-0.8935547,0.51220703,-1,-4,-3,-1,-2,-1,-3,-1
493.0147520303726,false,-0.58203125,-0.9550781,0.55615234,-0.39337313,-0.03619399,-0.9550781,0.55615234,0,-2,1,0,4,-3,0,2
493.041944026947,false,-0.5161133,-1.0024414,0.49072266,-0.38898158,-0.05304017,-1.0024414,0.49072266,-2,-2,-2,-1,-1,0,0,-2
493.0444860458374,false,-0.41064453,-0.9589844,0.43017578,-0.3826808,-0.07110417,-0.9589844,0.43017578,0,-1,1,-1,-3,-3,-2,-1
493.0721490383148,false,-0.5131836,-0.88916016,0.5151367,-0.37664726,-0.08917221,-0.88916016,0.5151367,1,0,-3,2,0,-1,2,2
493.10139298439026,false,-0.6484375,-0.81591797,0.60546875,-0.3712673,-0.105527066,-0.81591797,0.60546875,0,0,-2,1,1,4,1,-4
493.1037139892578,false,-0.61083984,-0.87158203,0.53271484,-0.36450008,-0.12231383,-0.87158203,0.53271484,0,1,-3,-1,2,0,5,2
493.161346077919,false,-0.5541992,-0.83447266,0.4501953,-0.35686827,-0.1398909,-0.83447266,0.4501953,0,-3,-3,2,-5,-1,-13,-2
493.19107604026794,false,-0.5332031,-0.71728516,0.4111328,-0.34911102,-0.15960233,-0.71728516,0.4111328,0,0,-2,-1,0,-1,-1,-2
493.25146198272705,false,-0.7661133,-0.78027344,0.5595703,-0.33404422,-0.19763114,-0.78027344,0.5595703,-1,-2,-2,-4,-2,-1,1,0
493.253476023674,false,-0.8564453,-0.8408203,0.5859375,-0.32727847,-0.21533726,-0.8408203,0.5859375,-2,1,3,3,-3,-2,-4,1
493.28199803829193,false,-0.7109375,-0.6020508,0.30566406,-0.30218726,-0.28003132,-0.6020508,0.30566406,-3,0,-4,0,-2,-1,-1,1
493.2847900390625,false,-0.7734375,-0.5488281,0.37548828,-0.29498178,-0.29827768,-0.5488281,0.37548828,0,-1,2,0,1,-1,1,0
493.3121249675751,false,-0.89990234,-0.59277344,0.44726562,-0.28942758,-0.31317016,-0.59277344,0.44726562,1,-1,-1,-2,-2,-1,1,0
493.3414840698242,false,-0.9169922,-0.6791992,0.38085938,-0.28368485,-0.32677466,-0.6791992,0.38085938,-1,0,-2,-4,1,-5,0,0
493.3440020084381,false,-0.8730469,-0.6772461,0.29785156,-0.27685052,-0.34020388,-0.6772461,0.29785156,0,-3,2,-2,4,-3,1,-1
493.37202298641205,false,-0.89746094,-0.62646484,0.3071289,-0.26940542,-0.35283932,-0.62646484,0.3071289,-1,-2,-1,0,-3,2,-3,-2
493.4014049768448,false,-0.9404297,-0.5908203,0.359375,-0.2625655,-0.3643081,-0.5908203,0.359375,-2,0,0,-4,2,-1,-3,0
493.4310950040817,false,-0.9863281,-0.60595703,0.39648438,-0.2557948,-0.37456757,-0.60595703,0.39648438,0,0,-3,-1,-2,1,-3,-3
493.46112406253815,false,-1.0292969,-0.6489258,0.38232422,-0.2479212,-0.38457692,-0.6489258,0.38232422,1,-2,-3,2,-2,1,4,1
493.4632920026779,false,-1.0317383,-0.6508789,0.3408203,-0.23870677,-0.39519978,-0.6508789,0.3408203,-1,-1,-3,1,-2,1,0,1
493.4655929803848,false,-1.0415039,-0.6333008,0.33251953,-0.22790399,-0.4063698,-0.6333008,0.33251953,-1,-2,-2,1,-2,1,0,0
493.4913749694824,false,-1.0249023,-0.61621094,0.3461914,-0.21593997,-0.41741475,-0.61621094,0.3461914,-1,0,-1,0,2,-2,1,-4
493.52142906188965,false,-1.003418,-0.61865234,0.3330078,-0.20306091,-0.4280331,-0.61865234,0.3330078,0,1,0,-1,2,-4,0,0
493.52382504940033,false,-0.97509766,-0.62060547,0.30078125,-0.1897538,-0.43803892,-0.62060547,0.30078125,-4,-2,-1,-4,1,-1,-1,-3
493.55208802223206,false,-0.95410156,-0.6152344,0.29101562,-0.1768751,-0.44707042,-0.6152344,0.29101562,-1,-2,0,-1,-3,-2,-5,-1
493.6113820075989,false,-0.953125,-0.62402344,0.32373047,-0.16515997,-0.4548308,-0.62402344,0.32373047,-1,0,0,1,2,-1,-1,-1
493.6143400669098,false,-0.96191406,-0.6489258,0.3408203,-0.1545968,-0.4615932,-0.6489258,0.3408203,-1,0,-1,-1,0,0,1,-3
493.6413300037384,false,-0.96484375,-0.7211914,0.328125,-0.13555798,-0.47179794,-0.7211914,0.328125,-3,-1,-1,-4,-5,-2,1,-3
493.6714290380478,false,-0.9399414,-0.72802734,0.31054688,-0.12671036,-0.47498074,-0.72802734,0.31054688,2,-1,-4,-1,1,1,-3,-1
493.67371702194214,false,-0.9121094,-0.73291016,0.28320312,-0.11804092,-0.47686335,-0.73291016,0.28320312,-2,0,-2,1,-2,-3,-4,-1
493.7014060020447,false,-0.89941406,-0.7348633,0.2890625,-0.10962003,-0.4772988,-0.7348633,0.2890625,-1,1,1,-1,2,4,-3,1
493.70382702350616,false,-0.86621094,-0.7661133,0.30029297,-0.10064843,-0.47626424,-0.7661133,0.30029297,2,-1,1,-1,-2,0,2,2
493.73263001441956,false,-0.8276367,-0.79296875,0.31982422,-0.090392664,-0.474119,-0.79296875,0.31982422,-1,1,-2,2,2,0,-3,-2
493.7612659931183,false,-0.8129883,-0.82421875,0.34814453,-0.07916257,-0.47119123,-0.82421875,0.34814453,-1,-1,0,-4,2,0,0,0
493.7912210226059,false,-0.796875,-0.8305664,0.37402344,-0.066833936,-0.4675934,-0.8305664,0.37402344,-1,-2,-3,2,0,-2,-2,-3
493.79285502433777,false,-0.7631836,-0.87353516,0.3642578,-0.052977506,-0.46355316,-0.87353516,0.3642578,-2,0,0,-1,1,1,1,-1
493.8213720321655,false,-0.74072266,-0.8774414,0.34423828,-0.038024485,-0.45922348,-0.8774414,0.34423828,-2,-3,1,1,-3,-3,1,-7
493.85116505622864,false,-0.7158203,-0.89501953,0.33544922,-0.02270559,-0.4539897,-0.89501953,0.33544922,2,-3,-2,-1,-1,-1,-2,-2
493.8528720140457,false,-0.7036133,-0.9013672,0.33447266,-0.0073849484,-0.44761333,-0.9013672,0.33447266,1,-2,1,3,-4,-1,0,0
493.8825110197067,false,-0.67822266,-0.9038086,0.3359375,0.007934658,-0.43988526,-0.9038086,0.3359375,-2,2,0,-2,1,0,1,-4
493.9114680290222,false,-0.65283203,-0.9194336,0.33740234,0.022644507,-0.43079495,-0.9194336,0.33740234,-3,1,-2,-3,-2,1,-4,0
493.9140430688858,false,-0.6635742,-0.95458984,0.36669922,0.036804892,-0.42017394,-0.95458984,0.36669922,-1,0,0,-7,-3,2,1,0
493.9719309806824,false,-0.6816406,-1.0239258,0.390625,0.05011045,-0.40930653,-1.0239258,0.390625,-3,-5,-5,-1,-7,-12,-8,-2
493.97367799282074,false,-0.69677734,-1.0551758,0.4086914,0.064087555,-0.39697662,-1.0551758,0.4086914,0,-1,0,-1,0,-4,1,3
494.0319150686264,false,-0.6923828,-1.0810547,0.44873047,0.092836246,-0.36878145,-1.0810547,0.44873047,2,-1,-1,-3,-3,0,-2,0
494.0340050458908,false,-0.72509766,-1.0693359,0.44433594,0.10876593,-0.35211596,-1.0693359,0.44433594,1,1,1,3,8,4,6,-3
494.035462975502,false,-0.67089844,-1.078125,0.41992188,0.12609579,-0.33275616,-1.078125,0.41992188,-1,-1,-2,2,-1,3,1,4
494.0612840652466,false,-0.609375,-1.0205078,0.3955078,0.1431835,-0.31084123,-1.0205078,0.3955078,-1,-3,-2,2,-2,0,3,0
494.091197013855,false,-0.5620117,-0.96777344,0.43945312,0.15906274,-0.2862641,-0.96777344,0.43945312,-2,-1,0,-1,-5,-6,-2,-4
494.09287798404694,false,-0.4892578,-0.96777344,0.45410156,0.17402065,-0.26069525,-0.96777344,0.45410156,-2,-2,-2,-1,-1,4,2,-1
494.1513890028,false,-0.43359375,-0.9863281,0.421875,0.18963878,-0.23498851,-0.9863281,0.421875,1,0,-3,-1,4,-4,-3,-1
494.1537150144577,false,-0.37548828,-0.9692383,0.4169922,0.20635843,-0.20855568,-0.9692383,0.4169922,-3,-5,-6,0,-3,1,-4,-1
494.18166506290436,false,-0.2680664,-0.99902344,0.42871094,0.2376198,-0.15442541,-0.99902344,0.42871094,-1,-1,1,0,-6,-5,-2,0
494.18398201465607,false,-0.19970703,-0.97314453,0.4086914,0.25115895,-0.12652552,-0.97314453,0.4086914,-1,0,-2,-6,-3,-3,-1,0
494.21208798885345,false,-0.1508789,-0.9272461,0.37158203,0.26361164,-0.09838898,-0.9272461,0.37158203,1,-1,2,1,8,-1,1,-3
494.2719850540161,false,-0.100097656,-0.8979492,0.38085938,0.27527085,-0.07025205,-0.8979492,0.38085938,-2,-2,-2,0,-7,-1,-1,-3
494.27437007427216,false,-0.07080078,-0.8881836,0.40576172,0.28552836,-0.041504763,-0.8881836,0.40576172,-5,-5,0,-1,6,-6,1,-1
494.3018749952316,false,0.0625,-0.82714844,0.36621094,0.3040203,0.01812769,-0.82714844,0.36621094,4,2,2,6,-5,0,4,0
494.3045300245285,false,0.119140625,-0.79248047,0.35253906,0.31225404,0.047485076,-0.79248047,0.35253906,1,0,1,-2,1,5,3,2
494.3322789669037,false,0.21044922,-0.7451172,0.2919922,0.31903577,0.07635618,-0.7451172,0.2919922,-2,2,0,-2,-6,-2,-1,4
494.36130702495575,false,0.27734375,-0.7104492,0.20898438,0.32427904,0.10382056,-0.7104492,0.20898438,-3,-4,-3,-8,5,7,-5,2
494.3641940355301,false,0.32177734,-0.6357422,0.14697266,0.32794616,0.13000657,-0.6357422,0.14697266,-2,-1,-2,-8,-11,-6,-2,-4
494.42152404785156,false,0.44873047,-0.5605469,0.048339844,0.33008423,0.15332314,-0.5605469,0.048339844,4,0,-1,0,-4,-1,1,4
494.4235910177231,false,0.5292969,-0.55566406,-0.06689453,0.33015522,0.17316516,-0.55566406,-0.06689453,-2,-6,-3,1,13,4,-4,-9
494.4519729614258,false,0.53125,-0.4970703,-0.06689453,0.32501712,0.2031891,-0.4970703,-0.06689453,-3,-2,0,-1,-2,5,14,-2
494.5120049715042,true,0.5541992,-0.51171875,-0.111328125,0.3205607,0.21301539,-0.51171875,-0.111328125,-3,-3,-1,0,-1,-5,-6,-3
494.5140050649643,true,0.55126953,-0.5698242,-0.111328125,0.3148771,0.21905291,-0.5698242,-0.111328125,-1,2,-2,3,0,-2,0,1
494.5413440465927,true,0.61083984,-0.4560547,-0.1459961,0.30456266,0.22460733,-0.4560547,-0.1459961,1,-2,-2,-1,-2,-12,-2,7
494.5440870523453,true,0.64697266,-0.4272461,-0.20166016,0.30084258,0.22326681,-0.4272461,-0.20166016,-1,-2,1,1,3,-2,-1,0
494.5722060203552,true,0.6455078,-0.4248047,-0.22998047,0.29864052,0.21722086,-0.4248047,-0.22998047,9,7,1,6,9,9,12,9
494.6015889644623,true,0.64404297,-0.42382812,-0.21826172,0.29896554,0.20618735,-0.42382812,-0.21826172,-4,-2,-2,-4,-4,-2,-5,-2
494.63147497177124,true,0.6298828,-0.47070312,-0.21386719,0.30134362,0.1887899,-0.47070312,-0.21386719,-1,5,1,-1,4,-2,-10,-3
494.6327279806137,true,0.62109375,-0.5961914,-0.19921875,0.3032311,0.16418913,-0.5961914,-0.19921875,3,11,4,-1,-2,-1,1,-4
494.66164004802704,true,0.5888672,-0.6767578,-0.18066406,0.30456224,0.13525249,-0.6767578,-0.18066406,-10,-56,-26,5,0,2,-1,2
494.6909520626068,true,0.51464844,-0.80322266,-0.15478516,0.3051896,0.102299556,-0.80322266,-0.15478516,1,29,15,0,-1,0,-3,-1
494.69310200214386,true,0.43701172,-1.1337891,0.016601562,0.3049889,0.06756508,-1.1337891,0.016601562,19,13,36,-2,8,7,2,14
494.72152304649353,true,0.3251953,-1.4916992,0.37451172,0.30322218,0.034301706,-1.4916992,0.37451172,-8,29,15,25,0,5,14,-9
494.75147902965546,true,0.39257812,-1.8393555,0.41308594,0.29975012,0.007568523,-1.8393555,0.41308594,0,-21,-6,-16,0,-1,-9,10
494.75313007831573,true,0.50634766,-1.1982422,0.028320312,0.3031772,-0.009094706,-1.1982422,0.028320312,-2,-29,-4,6,-1,-6,-29,-1
494.7820520401001,true,-0.13085938,-0.4321289,-0.059570312,0.30450866,-0.02935832,-0.4321289,-0.059570312,2,2,-20,8,-5,-3,48,-10
494.8110910654068,true,-1.190918,-0.24707031,1.3740234,0.29712847,-0.04663232,-0.24707031,1.3740234,-4,-2,-15,-33,9,-23,-23,-43
494.8133610486984,true,-0.33984375,-0.94970703,1.2089844,0.29119807,-0.06652817,-0.94970703,1.2089844,-7,14,-34,53,-11,47,-11,49
494.8414579629898,true,-0.2421875,-1.6455078,0.4814453,0.29992902,-0.08709782,-1.6455078,0.4814453,-12,-8,26,52,-17,-17,-8,-37
494.8710490465164,true,-0.18359375,-1.5405273,0.54345703,0.30060416,-0.10028277,-1.5405273,0.54345703,-5,11,4,62,12,-8,6,11
494.87304496765137,true,0.2446289,-1.4746094,0.61572266,0.30109182,-0.10235779,-1.4746094,0.61572266,-6,-29,-23,-49,-6,-9,-4,7
494.9016510248184,true,0.027832031,-1.1835938,0.3930664,0.29997772,-0.10326801,-1.1835938,0.3930664,0,2,0,-20,-7,-7,-3,0
494.9318779706955,true,0.078125,-0.89746094,0.2944336,0.29900938,-0.10131773,-0.89746094,0.2944336,-8,-18,-5,-50,-8,-1,-4,-10
494.9331270456314,true,0.1694336,-0.80126953,0.33642578,0.29932207,-0.10089303,-0.80126953,0.33642578,6,8,0,-6,1,-1,5,1
494.961727976799,true,0.17138672,-0.90527344,0.36914062,0.2995729,-0.10290952,-0.90527344,0.36914062,3,14,0,-8,-1,-3,-1,-1
494.9910570383072,true,0.1352539,-1.0537109,0.38476562,0.2990122,-0.10559117,-1.0537109,0.38476562,0,1,-2,-9,12,-1,4,-4
494.993026971817,true,0.09326172,-1.0805664,0.4296875,0.29816774,-0.10766998,-1.0805664,0.4296875,-11,-26,-15,-4,-2,0,-1,3
495.021546959877,true,0.09716797,-1.0048828,0.4482422,0.29802558,-0.10863926,-1.0048828,0.4482422,0,0,1,0,-12,0,-7,0
495.0240089893341,true,0.08154297,-0.99121094,0.45458984,0.2979827,-0.10962247,-0.99121094,0.45458984,-3,-7,4,-11,12,0,-1,9
495.05211997032166,true,0.078125,-0.9916992,0.45703125,0.29815596,-0.11010713,-0.9916992,0.45703125,3,9,7,1,-12,-2,-3,-4
495.08178198337555,true,0.072753906,-0.9892578,0.44628906,0.2981083,-0.110478304,-0.9892578,0.44628906,10,12,4,-5,1,0,-11,-6
495.08439207077026,true,0.07714844,-1.0102539,0.44873047,0.2983409,-0.11059608,-1.0102539,0.44873047,3,-2,6,1,-3,1,0,-5
495.1124150753021,true,0.076660156,-0.99902344,0.42822266,0.2983934,-0.11059293,-0.99902344,0.42822266,2,2,-7,-1,5,3,2,4
495.1415489912033,true,0.084472656,-0.98046875,0.4111328,0.29840517,-0.11065833,-0.98046875,0.4111328,3,5,4,-1,-13,-11,2,-1
495.14392507076263,true,0.087402344,-0.9794922,0.40527344,0.29834682,-0.110781394,-0.9794922,0.40527344,0,6,5,-1,4,0,-3,-6
495.1722639799118,true,0.080078125,-0.9863281,0.42285156,0.29804248,-0.11114793,-0.9863281,0.42285156,-4,-5,-4,-1,3,2,3,0
495.2015390396118,true,0.064453125,-1.0083008,0.42236328,0.2976074,-0.11145018,-1.0083008,0.42236328,1,4,4,2,-1,-2,-2,-5
495.2040330171585,true,0.046875,-1.0102539,0.42041016,0.29700962,-0.11169905,-1.0102539,0.42041016,-4,-2,-1,-3,1,-3,-2,2
495.2322750091553,true,0.05810547,-0.98095703,0.41455078,0.29645482,-0.11139181,-0.98095703,0.41455078,0,1,-3,0,-7,-2,-2,2
495.26154005527496,true,0.041015625,-0.9848633,0.44091797,0.29578906,-0.110966675,-0.9848633,0.44091797,-3,-5,-4,-1,1,-2,0,-2
495.26451301574707,true,0.026855469,-1.0224609,0.45263672,0.29504195,-0.11004564,-1.0224609,0.45263672,0,-1,-2,-4,3,0,1,0
495.2921060323715,true,0.019042969,-1.0366211,0.453125,0.2943731,-0.10827656,-1.0366211,0.453125,-1,0,2,2,-3,3,3,-2
495.3216840028763,false,0.024902344,-1.0708008,0.45361328,0.29413772,-0.105533116,-1.0708008,0.45361328,0,-2,-2,5,0,-1,0,1
495.38165307044983,false,0.04296875,-1.0600586,0.4584961,0.29467046,-0.101865165,-1.0600586,0.4584961,0,0,2,-1,-4,0,-2,1
495.3837380409241,false,0.049316406,-1.0537109,0.46777344,0.29523158,-0.097657755,-1.0537109,0.46777344,1,-3,0,-3,3,2,0,-1
495.3856030702591,false,0.044921875,-1.0317383,0.45458984,0.29560354,-0.092410445,-1.0317383,0.45458984,-2,1,-1,1,0,0,1,-4
495.4115390777588,false,0.05078125,-1.0078125,0.43164062,0.29553872,-0.08636664,-1.0078125,0.43164062,1,-4,-4,-4,-10,4,-3,-2
495.41328597068787,false,0.063964844,-0.99609375,0.43017578,0.29534855,-0.080077976,-0.99609375,0.43017578,-2,-5,0,-6,-12,-2,-3,2
495.4416170120239,false,0.096191406,-0.9472656,0.43896484,0.29584652,-0.07336652,-0.9472656,0.43896484,5,4,2,2,4,7,-4,0
495.4712710380554,false,0.12011719,-0.9423828,0.3935547,0.296032,-0.06695817,-0.9423828,0.3935547,5,5,-2,8,11,-1,-2,-2
495.4728670120239,false,0.123046875,-0.93896484,0.4584961,0.29554448,-0.060549386,-0.93896484,0.4584961,-7,-19,-19,-8,-7,-6,-12,0
495.5014840364456,false,0.123046875,-0.9272461,0.50146484,0.29340148,-0.05438334,-0.9272461,0.50146484,-4,-8,-6,-12,-4,-2,-4,0
495.5319969654083,false,0.0703125,-0.8173828,0.5419922,0.28937167,-0.047974296,-0.8173828,0.5419922,-21,-17,-7,-18,-20,-11,12,-7
495.5326910018921,false,0.072753906,-0.84814453,0.42773438,0.2826633,-0.042665005,-0.84814453,0.42773438,5,11,9,13,-1,2,-20,-1
495.56141805648804,false,0.1171875,-0.87890625,0.27783203,0.27368233,-0.03839121,-0.87890625,0.27783203,1,-6,1,3,6,3,5,-3
495.5913369655609,false,0.122558594,-0.8823242,0.30126953,0.26343083,-0.03509563,-0.8823242,0.30126953,7,9,1,-1,-4,3,2,-3
495.5935970544815,false,0.12646484,-0.7915039,0.30126953,0.25188902,-0.033935133,-0.7915039,0.30126953,-2,0,-1,3,9,4,-2,-2
495.6219869852066,false,0.14892578,-0.68896484,0.33496094,0.23780252,-0.03442521,-0.68896484,0.33496094,-1,7,7,5,3,-4,2,-1
495.65161406993866,false,0.13964844,-0.7182617,0.3383789,0.21979514,-0.0368665,-0.7182617,0.3383789,1,4,4,-1,3,-3,5,4
495.65317499637604,false,0.109375,-0.8071289,0.29541016,0.19873886,-0.04089528,-0.8071289,0.29541016,5,6,9,9,-1,2,-6,-5
495.68202698230743,false,0.12646484,-0.84033203,0.21728516,0.1776102,-0.04760686,-0.84033203,0.21728516,4,0,-4,0,-3,1,7,1
495.7112410068512,false,0.118652344,-0.8540039,0.22265625,0.15704504,-0.0576788,-0.8540039,0.22265625,-1,-6,-6,1,-3,-3,1,-3
495.77219903469086,false,0.109375,-0.82177734,0.34716797,0.13586165,-0.069151506,-0.82177734,0.34716797,-3,1,0,-3,-1,-4,1,1
495.77432000637054,false,0.023925781,-0.90234375,0.44140625,0.112123094,-0.08111682,-0.90234375,0.44140625,-2,2,-1,-1,2,0,-4,-3
495.83134496212006,false,-0.083984375,-1.0244141,0.4897461,0.086489044,-0.09277583,-1.0244141,0.4897461,0,0,-3,-2,1,2,-1,-2
495.8315190076828,false,-0.091308594,-1.0205078,0.31201172,0.037108853,-0.119322054,-1.0205078,0.31201172,-2,-2,0,0,-4,-4,2,-3
495.83376002311707,false,-0.123535156,-0.87890625,0.34423828,0.012634095,-0.13470265,-0.87890625,0.34423828,1,-1,-3,-1,-1,1,1,1
495.89140605926514,false,-0.32080078,-0.8300781,0.359375,-0.03954957,-0.16698708,-0.8300781,0.359375,-1,-5,-2,-3,-6,3,-3,-2
495.92135405540466,false,-0.39648438,-0.90625,0.33935547,-0.06457361,-0.18273477,-0.90625,0.33935547,0,-1,-3,4,3,-3,1,-1
495.9241089820862,false,-0.5209961,-1.1889648,0.40673828,-0.111082025,-0.21215446,-1.1889648,0.40673828,-4,1,0,0,2,1,-3,-5
495.981978058815,false,-0.5449219,-1.1967773,0.43310547,-0.13141035,-0.22577189,-1.1967773,0.43310547,0,1,-1,-3,-5,-1,5,3
495.9840409755707,false,-0.5053711,-1.0688477,0.39257812,-0.14867966,-0.24078047,-1.0688477,0.39257812,0,0,0,1,-3,0,0,-3
496.0110549926758,false,-0.6123047,-0.87890625,0.35986328,-0.17657204,-0.2717244,-0.87890625,0.35986328,0,-1,-2,-3,-1,-1,-3,-1
496.10212004184723,false,-0.74121094,-0.8442383,0.49267578,-0.18908313,-0.28295332,-0.8442383,0.49267578,-3,-2,-1,5,-3,-1,1,-1
496.13151502609253,false,-0.8120117,-0.9472656,0.41992188,-0.19970687,-0.29254127,-0.9472656,0.41992188,-2,-1,0,-6,-2,1,-2,-2
496.1339089870453,false,-0.8066406,-0.87939453,0.43798828,-0.21660675,-0.3214007,-0.87939453,0.43798828,0,0,-1,-1,0,-1,-2,0
496.19175601005554,false,-0.73291016,-0.75878906,0.40966797,-0.22008781,-0.33110827,-0.75878906,0.40966797,-1,-1,2,1,0,-2,-1,0
496.1945140361786,false,-0.72314453,-0.70751953,0.38427734,-0.22247203,-0.33514237,-0.70751953,0.38427734,-2,0,-1,-2,0,-2,-1,5
496.25173699855804,false,-0.7470703,-0.7817383,0.40820312,-0.22698358,-0.33568424,-0.7817383,0.40820312,-1,-1,-4,1,-1,-1,-2,-4
496.2542459964752,false,-0.75097656,-0.86816406,0.38330078,-0.2272986,-0.33447808,-0.86816406,0.38330078,0,-1,0,1,1,3,0,0
496.34152007102966,false,-0.77978516,-0.7729492,0.4111328,-0.22454949,-0.33319262,-0.7729492,0.4111328,-1,1,1,-4,0,2,-2,-1
496.34368097782135,false,-0.76660156,-0.7167969,0.36865234,-0.22283871,-0.3334341,-0.7167969,0.36865234,0,0,1,2,-1,-2,-2,-1
496.4014309644699,false,-0.8671875,-0.79785156,0.41796875,-0.21844201,-0.3247639,-0.79785156,0.41796875,-2,-2,-1,-1,1,-3,1,-2
496.403382062912,false,-0.8442383,-0.79296875,0.40771484,-0.21465711,-0.3197579,-0.79296875,0.40771484,-1,-1,-1,0,-1,-2,-1,0
496.49191200733185,false,-0.81689453,-0.7871094,0.3930664,-0.20513114,-0.3080324,-0.7871094,0.3930664,0,-3,-3,-1,0,-1,-3,2
496.49396800994873,false,-0.7949219,-0.76953125,0.39697266,-0.19951995,-0.3017518,-0.76953125,0.39697266,1,-1,-2,-5,-2,-1,-3,1
496.5511350631714,false,-0.72265625,-0.77978516,0.4267578,-0.17571892,-0.27300823,-0.77978516,0.4267578,-1,0,1,-2,-1,1,3,-1
496.61141300201416,false,-0.7216797,-0.76464844,0.44140625,-0.17095336,-0.2652493,-0.76464844,0.44140625,-2,-1,-3,-5,0,-2,2,3
496.61372101306915,false,-0.7089844,-0.75634766,0.44482422,-0.1669865,-0.25707132,-0.75634766,0.44482422,-1,1,2,-2,-1,-1,0,1
496.6154420375824,false,-0.6948242,-0.7680664,0.4321289,-0.16400193,-0.24810863,-0.7680664,0.4321289,-1,-3,-1,-1,0,0,-2,2
496.67131304740906,false,-0.61865234,-0.8979492,0.46826172,-0.15747163,-0.21386844,-0.8979492,0.46826172,1,1,1,3,-3,0,0,-2
496.674085021019,false,-0.58984375,-0.91796875,0.49658203,-0.15527868,-0.20032415,-0.91796875,0.49658203,-1,-2,0,0,2,-4,-7,1
496.7613340616226,false,-0.56640625,-0.97509766,0.53466797,-0.15100153,-0.1701056,-0.97509766,0.53466797,-2,-3,-2,-8,-4,0,-2,-7
496.76345205307007,false,-0.5385742,-0.9785156,0.5390625,-0.14850318,-0.15338616,-0.9785156,0.5390625,-4,-1,-2,2,1,-3,-6,-7
496.79193806648254,false,-0.4169922,-1.0073242,0.5341797,-0.14081146,-0.09601059,-1.0073242,0.5341797,0,-1,-2,-1,-3,-2,-2,-2
496.79396307468414,false,-0.4111328,-1.0,0.52001953,-0.13812092,-0.07495028,-1.0,0.52001953,-2,1,-2,0,1,0,-3,1
496.82133507728577,false,-0.375,-0.99853516,0.51123047,-0.1351277,-0.05163416,-0.99853516,0.51123047,0,-1,1,0,-6,2,2,-1
496.85146498680115,false,-0.33398438,-1.0498047,0.5107422,-0.13207954,-0.0270995,-1.0498047,0.5107422,0,-4,-3,-2,-2,1,3,-3
496.8537119626999,false,-0.28564453,-1.015625,0.4897461,-0.12835802,-0.0018921059,-1.015625,0.4897461,-1,-2,0,2,-5,-2,-2,-1
496.91163897514343,false,-0.23095703,-1.0039062,0.44726562,-0.12371683,0.023681367,-1.0039062,0.44726562,0,0,0,0,-5,-2,-4,3
496.91414296627045,false,-0.17333984,-0.99853516,0.40673828,-0.11901948,0.04931679,-0.99853516,0.40673828,1,0,0,3,1,0,-3,-4
496.94129705429077,false,-0.08935547,-0.96728516,0.39404297,-0.10888852,0.10009932,-0.96728516,0.39404297,-3,-2,-2,1,-1,-5,-7,3
496.97180700302124,false,-0.048828125,-0.9707031,0.41259766,-0.104126856,0.12463485,-0.9707031,0.41259766,-2,-2,1,-1,-1,0,-1,-4
497.0021140575409,false,-0.019042969,-0.97998047,0.40283203,-0.09973229,0.14923222,-0.97998047,0.40283203,1,-1,0,4,-1,-1,0,3
497.0040090084076,false,0.0390625,-0.9868164,0.35986328,-0.0951572,0.1734681,-0.9868164,0.35986328,1,2,-1,-1,0,2,2,-3
497.03163397312164,false,0.05078125,-1.0180664,0.32470703,-0.08984505,0.19739054,-1.0180664,0.32470703,-4,-6,-4,-5,1,-3,0,-5
497.03372502326965,false,0.064453125,-1.0063477,0.4267578,-0.08447335,0.22143736,-1.0063477,0.4267578,-5,-6,-3,-3,-1,-6,-6,0
497.0614470243454,false,0.10253906,-0.9951172,0.453125,-0.07971233,0.24511847,-0.9951172,0.453125,2,7,1,-5,-10,2,-4,4
497.09135603904724,false,0.1381836,-0.9897461,0.4638672,-0.07458344,0.26909852,-0.9897461,0.4638672,-7,1,1,-5,-2,1,-3,-6
497.09345507621765,false,0.1430664,-0.9277344,0.41992188,-0.07068014,0.2923033,-0.9277344,0.41992188,-11,-25,-11,-7,-10,-1,2,1
497.12134397029877,false,0.15527344,-0.8378906,0.3305664,-0.06836063,0.3153134,-0.8378906,0.3305664,6,0,-6,0,12,2,-1,8
497.18174505233765,false,0.2626953,-0.7709961,0.21435547,-0.06713867,0.33795166,-0.7709961,0.21435547,-6,4,-2,-6,-1,1,3,-4
497.1836429834366,false,0.37353516,-0.73339844,0.06933594,-0.06512457,0.35839877,-0.73339844,0.06933594,-4,12,5,4,-2,-5,-3,-2
497.2121480703354,false,0.3852539,-0.70996094,0.09667969,-0.057068013,0.39178565,-0.70996094,0.09667969,-11,-15,-4,0,12,4,-1,-4
497.2142770290375,false,0.359375,-0.7636719,0.13183594,-0.055177998,0.40309235,-0.7636719,0.13183594,8,4,7,4,8,-4,8,-6
497.24175202846527,false,0.34423828,-0.7104492,0.045898438,-0.056701817,0.4117443,-0.7104492,0.045898438,1,6,0,-1,13,1,-3,3
497.2717510461807,false,0.42578125,-0.70166016,0.021972656,-0.0605485,0.41712543,-0.70166016,0.021972656,-1,-2,2,-1,-10,-9,-9,-7
497.2743510007858,false,0.4086914,-0.69433594,0.040039062,-0.06439355,0.41956517,-0.69433594,0.040039062,2,4,3,-10,-5,-6,-6,2
497.3321360349655,false,0.4189453,-0.7402344,0.10449219,-0.06720154,0.42005542,-0.7402344,0.10449219,6,4,3,0,-4,3,3,2
497.3341369628906,false,0.46533203,-0.8520508,0.13476562,-0.07019137,0.41931713,-0.8520508,0.13476562,-1,5,1,6,0,0,0,-2
497.39160203933716,false,0.53515625,-0.9121094,0.17138672,-0.07843206,0.4159646,-0.9121094,0.17138672,-4,-7,-3,-5,0,-1,-4,-3
497.3932189941406,false,0.51708984,-0.8671875,0.16113281,-0.082278766,0.41401845,-0.8671875,0.16113281,7,5,5,3,-5,4,5,0
497.45170199871063,true,0.5175781,-0.9526367,0.115234375,-0.08709901,0.4113246,-0.9526367,0.115234375,0,0,-2,-2,-8,-3,3,0
497.4542980194092,true,0.5361328,-0.9526367,0.16064453,-0.08856595,0.4101745,-0.9526367,0.16064453,1,0,-1,4,4,0,3,-1
497.4819439649582,true,0.5332031,-0.8989258,0.107910156,-0.09405708,0.40802827,-0.8989258,0.107910156,-5,-9,-1,-1,1,2,-4,1
497.51179099082947,true,0.4975586,-0.8334961,0.076171875,-0.09759619,0.4068034,-0.8334961,0.076171875,3,10,3,3,1,2,6,1
497.5157960653305,true,0.4897461,-0.82714844,0.079589844,-0.100954205,0.40515962,-0.82714844,0.079589844,3,10,2,0,3,-4,-5,-4
497.54114603996277,true,0.48291016,-0.79003906,0.12158203,-0.105349995,0.40260056,-0.79003906,0.12158203,-9,-5,-1,-4,0,0,6,3
497.57174503803253,true,0.49023438,-0.73339844,0.13427734,-0.110415615,0.39875355,-0.73339844,0.13427734,0,-4,-4,8,1,-2,-4,-3
497.5737529993057,true,0.5,-0.67529297,0.11816406,-0.11804261,0.39325157,-0.67529297,0.11816406,-5,4,5,-2,-13,-2,1,4
497.60144007205963,true,0.49902344,-0.61328125,0.05029297,-0.1279876,0.38573277,-0.61328125,0.05029297,-2,-1,-4,-5,4,0,-1,0
497.6319830417633,true,0.5161133,-0.60058594,0.06933594,-0.13940457,0.37506175,-0.60058594,0.06933594,-15,-3,7,7,-8,-3,-1,-1
497.6338959932327,true,0.5385742,-0.65966797,0.114746094,-0.1548456,0.35888535,-0.65966797,0.114746094,4,4,-16,-13,5,1,-3,-8
497.6616510152817,true,0.47607422,-0.75,0.04296875,-0.17322098,0.33759168,-0.75,0.04296875,11,-9,-2,14,3,2,0,-7
497.69153797626495,true,0.5131836,-0.7963867,-0.04638672,-0.19391078,0.30963466,-0.7963867,-0.04638672,-12,4,-8,-10,-16,-2,9,-5
497.6936320066452,true,0.48339844,-0.69628906,-0.14404297,-0.21533462,0.27484462,-0.69628906,-0.14404297,19,6,10,6,0,3,-72,9
497.75163197517395,true,0.25195312,-0.42578125,-0.1459961,-0.23346454,0.23785916,-0.42578125,-0.1459961,-7,-2,12,-4,-14,-6,30,1
497.7537610530853,true,-0.28710938,-0.42236328,0.5932617,-0.24804924,0.20660597,-0.42236328,0.5932617,-9,-19,-10,-16,-2,-9,4,-11
497.7822690010071,true,-0.6118164,-1.5512695,0.9614258,-0.27203518,0.16412443,-1.5512695,0.9614258,17,-9,-9,6,-2,2,0,-1
497.81171703338623,true,-0.6748047,-1.7114258,0.87060547,-0.28027493,0.1465462,-1.7114258,0.87060547,-13,-26,-12,2,3,-1,12,-7
497.84160900115967,true,-0.55078125,-1.6728516,0.8095703,-0.28796527,0.13403386,-1.6728516,0.8095703,-7,-5,-6,-2,-10,4,-9,-6
497.8437160253525,true,-0.41455078,-1.440918,0.73291016,-0.29314676,0.12450955,-1.440918,0.73291016,-5,4,3,-1,-1,-1,1,9
497.8715549707413,true,-0.25048828,-1.2055664,0.5629883,-0.29523268,0.119509116,-1.2055664,0.5629883,-4,-2,5,4,-7,6,-4,-14
497.87416207790375,true,-0.111328125,-1.137207,0.4326172,-0.29522339,0.11846777,-1.137207,0.4326172,16,14,-1,0,6,-3,-7,-4
497.9022580385208,true,-0.11035156,-1.0986328,0.40820312,-0.2947468,0.11865557,-1.0986328,0.40820312,-9,-23,-13,-2,-5,-3,-1,-3
497.9328019618988,true,-0.1508789,-1.0263672,0.37402344,-0.29517123,0.11877651,-1.0263672,0.37402344,1,6,-1,1,3,-3,1,4
497.93445801734924,true,-0.14355469,-1.0253906,0.34521484,-0.29596642,0.11932653,-1.0253906,0.34521484,2,-9,-9,-1,-2,-1,6,-7
497.9622310400009,true,-0.123535156,-1.0087891,0.37695312,-0.29596567,0.12054696,-1.0087891,0.37695312,0,6,7,-2,3,-2,-7,2
497.9910590648651,true,-0.100097656,-0.9970703,0.38671875,-0.29589573,0.12158091,-0.9970703,0.38671875,-6,-4,2,2,2,2,-5,-11
497.9930109977722,true,-0.12109375,-0.98828125,0.421875,-0.29590324,0.12262162,-0.98828125,0.421875,4,12,-3,-1,-8,-2,2,9
498.02155697345734,true,-0.1381836,-0.9785156,0.44433594,-0.29657483,0.12323207,-0.9785156,0.44433594,-5,-13,-3,-8,-9,-9,-1,6
498.05155098438263,true,-0.1484375,-0.94873047,0.4482422,-0.29736874,0.12378157,-0.94873047,0.4482422,-6,-12,-3,-4,-13,0,-7,-8
498.0539070367813,true,-0.1381836,-0.9550781,0.44091797,-0.29816023,0.12463524,-0.9550781,0.44091797,-1,1,2,-3,3,0,-2,-2
498.08253598213196,true,-0.13134766,-0.9526367,0.44726562,-0.29875872,0.125912,-0.9526367,0.44726562,-7,-16,-19,-6,-1,0,0,1
498.14170598983765,true,-0.14257812,-0.98779297,0.44628906,-0.2996824,0.12731925,-0.98779297,0.44628906,-1,-1,-4,0,2,3,-2,-4
498.14358699321747,true,-0.13378906,-0.9863281,0.4194336,-0.30077225,0.1287193,-0.9863281,0.4194336,4,6,5,-2,-2,-2,1,-3
498.14638900756836,true,-0.14355469,-0.97265625,0.42919922,-0.30230007,0.13006288,-0.97265625,0.42919922,0,2,-1,-2,-10,-2,3,5
498.17169404029846,true,-0.14208984,-0.9921875,0.4111328,-0.30426013,0.1318359,-0.9921875,0.4111328,-2,2,-2,-6,0,-2,-1,-4
498.17322301864624,true,-0.14355469,-0.99658203,0.40820312,-0.30633533,0.13403316,-0.99658203,0.40820312,-3,4,9,10,8,2,-2,-6
498.2017990350723,true,-0.15722656,-1.0161133,0.40576172,-0.3088347,0.13653423,-1.0161133,0.40576172,4,8,6,2,6,1,-1,-1
498.2309980392456,false,-0.17236328,-1.0239258,0.4350586,-0.3115225,0.13964802,-1.0239258,0.4350586,3,1,1,-2,-1,-2,-3,-3
498.23326098918915,false,-0.20361328,-1.0283203,0.45507812,-0.3143994,0.14288662,-1.0283203,0.45507812,-2,-1,-3,1,4,0,-3,-2
498.29165506362915,false,-0.19726562,-1.034668,0.46289062,-0.31714162,0.14654677,-1.034668,0.46289062,0,-2,1,0,-4,-2,0,-1
498.322154045105,false,-0.18554688,-1.0493164,0.45361328,-0.31909534,0.15069747,-1.0493164,0.45361328,0,-1,-2,-2,0,-4,0,0
498.3514530658722,false,-0.09472656,-0.9980469,0.3671875,-0.32128862,0.16491675,-0.9980469,0.3671875,0,0,-3,1,-2,1,4,1
498.3533979654312,false,-0.07324219,-0.9794922,0.37451172,-0.32135823,0.17029239,-0.9794922,0.37451172,-1,1,2,-2,3,0,1,-2
498.41177797317505,false,-0.07421875,-0.9741211,0.37695312,-0.32153484,0.17511076,-0.9741211,0.37695312,-2,0,-2,-5,-2,-2,-2,2
498.4139120578766,false,-0.07861328,-0.95654297,0.36669922,-0.32202318,0.17895602,-0.95654297,0.36669922,1,2,3,1,0,-7,-7,1
498.44145596027374,false,-0.040527344,-0.94921875,0.28564453,-0.32525802,0.18243502,-0.94921875,0.28564453,0,0,-1,-1,-1,0,-1,-3
498.4713079929352,false,-0.04736328,-0.90283203,0.28857422,-0.32800856,0.18280344,-0.90283203,0.28857422,-2,-5,-1,2,0,2,-2,-2
498.4730850458145,false,-0.08105469,-0.90283203,0.33251953,-0.3320314,0.18225107,-0.90283203,0.33251953,2,0,-2,-5,-5,1,-7,1
498.53114998340607,false,-0.08251953,-0.8745117,0.31640625,-0.33795488,0.1801775,-0.8745117,0.31640625,1,0,-3,3,-1,-2,-1,1
498.5331380367279,false,-0.10498047,-0.8574219,0.27539062,-0.34521985,0.17590588,-0.8574219,0.27539062,-4,-4,0,-5,1,-1,5,0
498.59123706817627,false,-0.13574219,-0.7265625,0.22509766,-0.36744478,0.1610165,-0.7265625,0.22509766,-1,-2,0,-6,-2,1,4,0
498.592954993248,false,-0.11816406,-0.67333984,0.18701172,-0.3806136,0.15106136,-0.67333984,0.18701172,-1,-3,-2,-3,-3,-1,7,-6
498.5953530073166,false,-0.11669922,-0.6044922,0.18701172,-0.39442,0.140873,-0.6044922,0.18701172,-2,-4,-2,-1,-4,-5,6,-7
498.62187099456787,false,-0.10253906,-0.6191406,0.19482422,-0.40857363,0.13037246,-0.6191406,0.19482422,1,2,-4,2,1,1,-8,-5
498.65170407295227,false,-0.21435547,-0.7397461,0.2998047,-0.42278075,0.120724745,-0.7397461,0.2998047,2,3,1,1,-3,0,-7,2
498.65425503253937,false,-0.31884766,-0.9008789,0.39892578,-0.43854538,0.10992627,-0.9008789,0.39892578,0,-2,0,-4,-1,-1,1,-1
498.6818879842758,false,-0.38427734,-1.0014648,0.45263672,-0.45513692,0.0975337,-1.0014648,0.45263672,-3,0,0,-3,-1,-3,-5,0
498.71098697185516,false,-0.46826172,-0.90722656,0.43017578,-0.47234112,0.081175044,-0.90722656,0.43017578,-1,-1,0,0,5,2,6,1
498.71301996707916,false,-0.56396484,-0.9248047,0.36376953,-0.4881582,0.06317126,-0.9248047,0.36376953,1,2,-2,3,0,0,1,-4
498.74187302589417,false,-0.6767578,-0.9506836,0.35009766,-0.5024983,0.046996683,-0.9506836,0.35009766,-1,1,0,0,-7,-1,1,0
498.77121007442474,false,-0.7241211,-0.9770508,0.37402344,-0.51677966,0.031615905,-0.9770508,0.37402344,-1,0,-2,-2,5,-1,-2,3
498.77296698093414,false,-0.6875,-0.9501953,0.3413086,-0.5302628,0.017272603,-0.9501953,0.3413086,0,-2,-2,0,0,2,-3,0
498.80212807655334,false,-0.6425781,-0.9296875,0.3466797,-0.54247,0.00537099,-0.9296875,0.3466797,-1,0,1,0,1,-3,-3,0
498.83137905597687,false,-0.68359375,-0.99902344,0.45117188,-0.5535113,-0.0037230335,-0.99902344,0.45117188,0,-2,-2,-4,-3,-3,-5,0
498.83298802375793,false,-0.7709961,-1.0556641,0.5341797,-0.5634226,-0.013244797,-1.0556641,0.5341797,2,-1,2,17,0,2,-1,-3
498.8620630502701,false,-0.8354492,-1.1142578,0.49853516,-0.5722533,-0.025817314,-1.1142578,0.49853516,-3,1,-3,-3,0,3,-2,-1
498.89150607585907,false,-0.88134766,-1.0283203,0.4428711,-0.5795295,-0.03735356,-1.0283203,0.4428711,-5,-1,2,-17,-1,-4,1,-2
498.8933869600296,false,-0.90283203,-0.8876953,0.4165039,-0.58641124,-0.04675177,-0.8876953,0.4165039,-2,0,0,-1,-4,-1,-2,-3
498.9217879772186,false,-0.8955078,-0.828125,0.40820312,-0.5928299,-0.051513273,-0.828125,0.40820312,-1,0,0,1,-1,-2,-1,-3
498.9515290260315,false,-0.8847656,-0.84716797,0.40185547,-0.59897894,-0.051145747,-0.84716797,0.40185547,1,-3,-2,-1,-3,-1,-2,2
498.9537590742111,false,-0.86279297,-0.8535156,0.37695312,-0.6047402,-0.04718048,-0.8535156,0.37695312,-2,-3,-2,3,0,-4,1,-4
498.98163998126984,false,-0.8198242,-0.8618164,0.35595703,-0.60978335,-0.04077022,-0.8618164,0.35595703,0,-2,0,3,1,0,0,-5
499.0112270116806,false,-0.7788086,-0.8442383,0.3671875,-0.61425334,-0.03265357,-0.8442383,0.3671875,-2,-2,0,-4,-3,-1,-1,-3
499.0127919912338,false,-0.76660156,-0.80810547,0.3779297,-0.618092,-0.023803284,-0.80810547,0.3779297,-2,-1,2,-6,-1,-1,-2,-3
499.04135298728943,false,-0.75439453,-0.8046875,0.39746094,-0.62139225,-0.014526212,-0.8046875,0.39746094,-3,0,0,0,-1,-2,-1,-3
499.071231007576,false,-0.77246094,-0.8071289,0.41259766,-0.6241371,-0.00549309,-0.8071289,0.41259766,0,-1,-2,2,-1,1,0,2
499.07291996479034,false,-0.8022461,-0.79003906,0.4296875,-0.62620926,0.0026244638,-0.79003906,0.4296875,-2,0,-3,3,1,-4,-4,4
499.10136806964874,false,-0.79833984,-0.77246094,0.43847656,-0.6277516,0.009765703,-0.77246094,0.43847656,1,1,-2,1,1,1,-1,0
499.1312130689621,false,-0.79296875,-0.7573242,0.43359375,-0.6288841,0.016173746,-0.7573242,0.43359375,-2,0,0,-2,-2,2,5,2
499.1332939863205,false,-0.8051758,-0.7763672,0.43652344,-0.62974936,0.023009837,-0.7763672,0.43652344,2,-1,-2,-3,0,1,-1,-1
499.1617740392685,false,-0.8251953,-0.77783203,0.43310547,-0.6302515,0.030395627,-0.77783203,0.43310547,-1,1,-1,2,2,-3,-2,-2
499.19156897068024,false,-0.8076172,-0.765625,0.4453125,-0.6299762,0.03832833,-0.765625,0.4453125,0,-2,-1,-2,-1,-1,3,2
499.1933950185776,false,-0.7861328,-0.73095703,0.45361328,-0.6294065,0.046082422,-0.73095703,0.45361328,0,0,-2,-2,0,0,0,1
499.22182404994965,false,-0.76464844,-0.74316406,0.4326172,-0.6290685,0.05389226,-0.74316406,0.4326172,-1,-2,1,1,0,0,-4,-4
499.2515289783478,false,-0.75390625,-0.7573242,0.4345703,-0.6288915,0.062437505,-0.7573242,0.4345703,0,-2,-1,-1,-3,-4,1,-1
499.25369596481323,false,-0.7084961,-0.75146484,0.43359375,-0.62896436,0.07098356,-0.75146484,0.43359375,0,-1,3,-2,-2,-3,-2,-1
499.28135800361633,false,-0.63916016,-0.7285156,0.40820312,-0.6285252,0.07934383,-0.7285156,0.40820312,-1,1,0,1,0,2,-3,3
499.311262011528,false,-0.57421875,-0.70458984,0.4140625,-0.6275967,0.08849705,-0.70458984,0.4140625,-3,-2,0,-3,-4,-4,-2,1
499.3129360675812,false,-0.54833984,-0.7026367,0.43847656,-0.6267627,0.098387524,-0.7026367,0.43847656,-1,-1,-3,0,2,-1,-3,-4
499.3415540456772,false,-0.56347656,-0.7270508,0.50683594,-0.6264524,0.10918972,-0.7270508,0.50683594,-2,-1,-1,0,0,-1,-1,-3
499.3711910247803,false,-0.5698242,-0.7861328,0.52783203,-0.6263381,0.11975009,-0.7861328,0.52783203,0,0,0,-5,0,0,-2,1
499.3729690313339,false,-0.5698242,-0.8334961,0.5361328,-0.6265135,0.1289037,-0.8334961,0.5361328,-2,1,-1,0,-2,-3,-4,-3
499.40133905410767,false,-0.5673828,-0.85791016,0.546875,-0.6272656,0.13641515,-0.85791016,0.546875,-1,1,-1,1,1,3,1,0
499.43109607696533,false,-0.5732422,-0.88378906,0.56152344,-0.62841415,0.14221105,-0.88378906,0.56152344,1,0,0,-1,-2,-2,1,-3
499.4332630634308,false,-0.5800781,-0.92333984,0.53808594,-0.62955767,0.1466018,-0.92333984,0.53808594,-2,-1,0,7,-2,-2,-5,-2
499.4617130756378,false,-0.5756836,-0.94091797,0.5175781,-0.6307814,0.15014246,-0.94091797,0.5175781,-4,0,-1,-4,-1,0,2,-1
499.49158906936646,false,-0.57128906,-0.92822266,0.49414062,-0.63255495,0.15368326,-0.92822266,0.49414062,-1,0,-2,-6,-2,1,0,0
499.4937809705734,false,-0.5288086,-0.97216797,0.4609375,-0.63446516,0.15893672,-0.97216797,0.4609375,0,-4,-2,2,0,0,0,-2
499.52138900756836,false,-0.47705078,-0.98583984,0.43603516,-0.63584256,0.16631512,-0.98583984,0.43603516,0,0,0,0,-2,-4,-2,-4
499.55154597759247,false,-0.4638672,-1.0146484,0.453125,-0.63678455,0.17657603,-1.0146484,0.453125,4,1,1,11,0,3,-1,3
499.55316603183746,false,-0.46044922,-1.0209961,0.50927734,-0.6379193,0.18859267,-1.0209961,0.50927734,-2,-4,1,1,-2,0,-1,-2
499.5814460515976,false,-0.47558594,-1.0732422,0.54785156,-0.6394171,0.20172523,-1.0732422,0.54785156,-2,1,-3,1,0,-2,-1,-2
499.6112359762192,false,-0.4946289,-1.1416016,0.54248047,-0.6405699,0.21637164,-1.1416016,0.54248047,-3,0,2,-6,-3,-3,0,-3
499.6128970384598,false,-0.4897461,-1.1518555,0.53515625,-0.6409461,0.23218349,-1.1518555,0.53515625,-2,-3,-2,5,-1,1,-4,0
499.64161801338196,false,-0.4868164,-1.1328125,0.52441406,-0.6403744,0.24908198,-1.1328125,0.52441406,-2,-1,-1,-1,1,-2,0,-1
499.67132902145386,false,-0.48339844,-1.1323242,0.55029297,-0.6389092,0.26696494,-1.1323242,0.55029297,1,2,-2,-6,2,-1,1,-2
499.6730999946594,false,-0.47021484,-1.1088867,0.53027344,-0.6369535,0.2849079,-1.1088867,0.53027344,-1,1,2,-9,-1,0,-1,2
499.7014319896698,false,-0.43408203,-1.0991211,0.5,-0.6342265,0.30255613,-1.0991211,0.5,2,0,1,-6,2,1,-5,3
499.7312650680542,false,-0.37890625,-1.09375,0.4794922,-0.6306898,0.32013625,-1.09375,0.4794922,-1,-4,-3,-3,-2,1,0,-3
499.73312497138977,false,-0.33740234,-1.0429688,0.4946289,-0.6263407,0.3378895,-1.0429688,0.4946289,0,-1,-1,-1,-5,1,0,-5
499.7620220184326,false,-0.29541016,-1.0117188,0.49121094,-0.6218059,0.355152,-1.0117188,0.49121094,2,0,-2,-2,3,-2,0,0
499.7916159629822,false,-0.25732422,-0.98828125,0.46679688,-0.61645794,0.3721941,-0.98828125,0.46679688,0,-2,0,-3,0,-3,0,-1
499.7936199903488,false,-0.20800781,-0.9482422,0.4609375,-0.610302,0.38922846,-0.9482422,0.4609375,-1,-2,-1,-1,-3,-2,-3,-1
499.82305097579956,false,-0.12890625,-0.92285156,0.45263672,-0.6037682,0.40564534,-0.92285156,0.45263672,-2,-1,-2,5,-1,-2,-2,-3
499.8512270450592,false,-0.08203125,-0.9008789,0.46826172,-0.59661597,0.4220562,-0.9008789,0.46826172,-1,-1,0,-2,2,-1,1,0
499.8534539937973,false,-0.03515625,-0.90527344,0.44628906,-0.5891742,0.43786758,-0.90527344,0.44628906,-1,1,3,8,1,0,2,3
499.88228499889374,false,0.0087890625,-0.9033203,0.44873047,-0.58130217,0.45282242,-0.9033203,0.44873047,-3,-2,-1,-7,-3,1,1,-4
499.9412080049515,false,0.05517578,-0.92529297,0.44677734,-0.57447,0.46570402,-0.92529297,0.44677734,0,-3,-3,1,1,-2,0,0
499.94315099716187,false,0.104003906,-0.9121094,0.48779297,-0.5680015,0.477424,-0.9121094,0.48779297,-1,-3,-4,-1,-2,0,-7,-6
499.97122597694397,false,0.17822266,-0.88183594,0.42529297,-0.555924,0.4972675,-0.88183594,0.42529297,-1,0,-4,-1,-3,-1,-2,1
499.9735070466995,false,0.21142578,-0.8964844,0.43408203,-0.54968566,0.5068998,-0.8964844,0.43408203,1,1,0,-3,-4,-1,-1,1
500.0026409626007,false,0.26464844,-0.88183594,0.4189453,-0.5430956,0.51654506,-0.88183594,0.4189453,3,2,-1,1,2,3,1,1
500.03150701522827,false,0.3149414,-0.8383789,0.40234375,-0.5365101,0.5252794,-0.8383789,0.40234375,-3,-1,-2,0,-3,-2,-1,0
500.03433907032013,false,0.34228516,-0.8208008,0.37695312,-0.5297407,0.53376913,-0.8208008,0.37695312,-2,-2,-1,-1,-3,-1,-2,-1
500.06260907649994,false,0.36767578,-0.77734375,0.36279297,-0.5232663,0.5421266,-0.77734375,0.36279297,-5,-1,-2,1,-1,-2,-6,-3
500.09152007102966,false,0.3935547,-0.7807617,0.34716797,-0.51673496,0.55079335,-0.7807617,0.34716797,-2,-3,-1,-5,1,-5,-6,-5
500.09402298927307,false,0.43652344,-0.72802734,0.34472656,-0.5104357,0.55908054,-0.72802734,0.34472656,-2,-3,-1,2,0,0,-1,0
500.12224102020264,false,0.47607422,-0.74072266,0.31884766,-0.50336045,0.5678751,-0.74072266,0.31884766,3,2,-2,3,-1,0,4,5
500.15123307704926,false,0.47753906,-0.73535156,0.36083984,-0.4960491,0.5769234,-0.73535156,0.36083984,1,1,1,-5,3,-2,-5,0
500.15363800525665,false,0.48876953,-0.7685547,0.4248047,-0.48872632,0.5859589,-0.7685547,0.4248047,-2,-1,-4,-11,-7,1,6,-1
500.1823400259018,false,0.48779297,-0.72265625,0.4873047,-0.48157874,0.5944964,-0.72265625,0.4873047,2,4,1,3,-1,2,-9,1
500.2112309932709,false,0.5073242,-0.69091797,0.41845703,-0.4770769,0.60183954,-0.69091797,0.41845703,-2,-5,-2,-5,0,0,3,1
500.2133790254593,false,0.60009766,-0.53515625,0.2397461,-0.47558814,0.6077909,-0.53515625,0.2397461,-1,2,3,6,1,-2,2,1
500.2422150373459,false,0.64208984,-0.47998047,-0.009277344,-0.47414008,0.6149538,-0.47998047,-0.009277344,-6,1,0,5,-7,-1,1,-2
500.27103996276855,false,0.7480469,-0.51171875,-0.08886719,-0.4711859,0.62328374,-0.51171875,-0.08886719,12,7,1,7,0,2,0,3
500.2732720375061,false,0.78271484,-0.5883789,-0.026367188,-0.46596572,0.6312572,-0.5883789,-0.026367188,-8,5,1,1,0,-1,2,-5
500.3028039932251,false,0.65185547,-0.5932617,0.10058594,-0.45984435,0.6388626,-0.5932617,0.10058594,14,-4,6,1,2,0,7,-4
500.3315529823303,false,0.69921875,-0.55566406,-0.022949219,-0.4570998,0.644786,-0.55566406,-0.022949219,-2,2,-4,-4,-5,-2,-2,19
500.3347660303116,false,0.82128906,-0.48095703,-0.18017578,-0.4579643,0.6490727,-0.48095703,-0.18017578,-3,-2,-1,0,-5,-6,-7,-23
500.3622419834137,false,0.71728516,-0.41357422,-0.09423828,-0.46008867,0.6519245,-0.41357422,-0.09423828,-6,-24,-11,-5,-5,-2,-5,2
500.3912080526352,false,0.68603516,-0.51708984,0.020019531,-0.46155792,0.65382284,-0.51708984,0.020019531,-4,2,0,-6,6,4,-1,2
500.3934680223465,false,0.6953125,-0.6665039,0.12597656,-0.46240228,0.65454096,-0.6665039,0.12597656,-4,-5,0,-1,5,2,-3,-5
500.42216396331787,false,0.6870117,-0.68847656,0.19335938,-0.4645598,0.65383846,-0.68847656,0.19335938,-1,-1,-2,-8,-4,-6,-2,3
500.45116901397705,false,0.69628906,-0.671875,0.24072266,-0.4680204,0.6515542,-0.671875,0.24072266,-5,4,0,8,3,0,1,1
500.4536180496216,false,0.71533203,-0.6269531,0.1977539,-0.47162434,0.6486284,-0.6269531,0.1977539,-3,-7,-2,-9,1,-1,-4,-7
500.48224401474,false,0.7392578,-0.59277344,0.16503906,-0.47455892,0.6455832,-0.59277344,0.16503906,-4,-7,-1,5,-14,0,2,-4
500.51151299476624,false,0.7192383,-0.5830078,0.16455078,-0.47668916,0.64282846,-0.5830078,0.16455078,1,7,4,5,-1,-1,-3,-2
500.51349997520447,false,0.7246094,-0.60595703,0.16015625,-0.4789587,0.63985264,-0.60595703,0.16015625,3,5,1,-2,1,1,0,-1
500.5424630641937,false,0.7216797,-0.61279297,0.17529297,-0.48201105,0.6361301,-0.61279297,0.17529297,-3,-2,-1,1,-2,0,1,-3
500.5713120698929,false,0.73095703,-0.5908203,0.18847656,-0.48567307,0.6319182,-0.5908203,0.18847656,-1,0,-4,-2,-3,-1,-4,-2
500.5741319656372,false,0.71435547,-0.625,0.18945312,-0.48951933,0.628013,-0.625,0.18945312,-4,-7,-6,1,2,-1,5,2
500.60257601737976,false,0.70410156,-0.7089844,0.26464844,-0.49323702,0.62428266,-0.7089844,0.26464844,2,0,0,-3,4,2,-2,1
500.6316120624542,false,0.7084961,-0.7421875,0.2890625,-0.4970796,0.6203119,-0.7421875,0.2890625,2,-1,0,4,4,0,-2,-1
500.634260058403,false,0.7163086,-0.7524414,0.31347656,-0.50171554,0.61566967,-0.7524414,0.31347656,1,1,-2,-6,-4,2,-2,2
500.6623339653015,false,0.69384766,-0.7368164,0.30371094,-0.50659657,0.6109677,-0.7368164,0.30371094,-5,-2,-5,-1,3,-6,-3,-2
500.6911610364914,false,0.65527344,-0.7675781,0.3154297,-0.51092744,0.60687506,-0.7675781,0.3154297,2,0,1,8,4,1,2,1
500.75141298770905,false,0.6513672,-0.78222656,0.3046875,-0.51490474,0.6032247,-0.78222656,0.3046875,0,1,1,-8,1,2,0,1
500.7533310651779,false,0.6484375,-0.7705078,0.27734375,-0.5186742,0.59978956,-0.7705078,0.27734375,-5,1,0,0,0,0,1,0
500.7812770605087,false,0.61621094,-0.7739258,0.26464844,-0.5225785,0.59661347,-0.7739258,0.26464844,5,5,2,10,8,0,1,1
500.782399058342,false,0.6044922,-0.73095703,0.24072266,-0.52936643,0.59137917,-0.73095703,0.24072266,-3,-2,2,-4,-3,2,0,-3
500.811262011528,false,0.59228516,-0.7651367,0.25976562,-0.5316299,0.58992,-0.7651367,0.25976562,-1,-4,-3,-2,7,0,5,-2
500.81361198425293,false,0.59277344,-0.79833984,0.27685547,-0.5338884,0.58821106,-0.79833984,0.27685547,0,5,-1,4,0,-5,-3,0
500.84291303157806,false,0.5913086,-0.7919922,0.29345703,-0.53577566,0.5865578,-0.7919922,0.29345703,2,-2,0,-2,-7,-1,6,-14
500.8711780309677,false,0.59521484,-0.8051758,0.3173828,-0.5371726,0.5850854,-0.8051758,0.3173828,0,1,-1,2,-3,1,-4,9
500.87335205078125,false,0.55908203,-0.8569336,0.35742188,-0.53871703,0.58364064,-0.8569336,0.35742188,1,-2,-2,-6,-4,-3,-13,0
500.90211403369904,false,0.5473633,-0.8730469,0.3564453,-0.5410884,0.58149457,-0.8730469,0.3564453,0,-3,-1,1,0,-2,15,-3
500.93135499954224,false,0.5473633,-0.8642578,0.31445312,-0.5437576,0.5791577,-0.8642578,0.31445312,-1,0,-2,-6,-3,0,-7,-15
500.93373000621796,false,0.5307617,-0.8647461,0.29589844,-0.5461066,0.5775412,-0.8647461,0.29589844,0,-1,1,1,-2,-2,-3,1
500.9621340036392,false,0.5126953,-0.8642578,0.28759766,-0.54803914,0.57672584,-0.8642578,0.28759766,-2,-2,-1,-1,2,0,0,5
500.9912979602814,false,0.5234375,-0.86376953,0.29101562,-0.549446,0.576546,-0.86376953,0.29101562,-2,-5,-2,0,6,1,-3,4
500.99348306655884,false,0.52734375,-0.8510742,0.29589844,-0.5502335,0.57672286,-0.8510742,0.29589844,3,7,2,3,-2,-4,1,8
501.02215898036957,false,0.53515625,-0.85498047,0.32421875,-0.5504916,0.5773478,-0.85498047,0.32421875,3,1,3,3,3,4,6,-15
501.0512920618057,false,0.52490234,-0.8618164,0.32714844,-0.55125904,0.57774776,-0.8618164,0.32714844,-2,1,-2,-3,-5,-6,-4,17
501.0812350511551,false,0.49072266,-0.88134766,0.328125,-0.5523555,0.57805073,-0.88134766,0.328125,-2,-3,-1,0,-3,2,11,-30
501.0829759836197,false,0.48388672,-0.8359375,0.30029297,-0.5542647,0.57751936,-0.8359375,0.30029297,-2,-1,1,-3,-1,2,-2,5
501.1113209724426,false,0.47558594,-0.78759766,0.26367188,-0.5563985,0.5767844,-0.78759766,0.26367188,3,3,1,6,1,3,-2,4
501.11364698410034,false,0.4921875,-0.73583984,0.2578125,-0.55861384,0.57588744,-0.73583984,0.2578125,1,-2,1,-1,-2,-1,-1,6
501.17114305496216,true,0.45166016,-0.6933594,0.24511719,-0.562203,0.5738609,-0.6933594,0.24511719,-2,-27,-9,-4,3,-5,-2,6
501.17346000671387,true,0.41455078,-0.65234375,0.25097656,-0.56822854,0.5695713,-0.65234375,0.25097656,2,1,-5,-1,3,-3,-6,-12
501.17533898353577,true,0.38720703,-0.6035156,0.16894531,-0.5775318,0.5622115,-0.6035156,0.16894531,-6,-44,-11,1,-12,2,-3,9
501.20205307006836,true,0.42529297,-0.57373047,0.14501953,-0.58924353,0.5514011,-0.57373047,0.14501953,6,28,12,8,-1,8,5,4
501.2311329841614,true,0.4819336,-0.61035156,0.08203125,-0.60663515,0.53345317,-0.61035156,0.08203125,-27,2,-1,-8,-9,-4,-6,-10
501.2339720726013,true,0.56103516,-0.6323242,-0.052734375,-0.6278794,0.50928605,-0.6323242,-0.052734375,13,10,1,-5,-5,-3,-6,-3
501.26220297813416,true,0.6923828,-0.6201172,-0.16601562,-0.6490008,0.4801129,-0.6201172,-0.16601562,13,-1,-9,4,-11,-9,0,4
501.2912850379944,true,0.71240234,-0.61083984,-0.17578125,-0.67021656,0.44286418,-0.61083984,-0.17578125,13,8,2,3,-5,4,55,-25
501.2935930490494,true,0.5839844,-0.43408203,-0.12597656,-0.6887131,0.4027055,-0.43408203,-0.12597656,-1,2,11,12,-12,-8,-101,14
501.3226660490036,true,0.375,-0.19921875,-0.010253906,-0.70227545,0.36590832,-0.19921875,-0.010253906,-13,-23,-13,-13,11,8,29,6
501.352481007576,true,-0.1743164,-0.37841797,0.51464844,-0.70726764,0.34222037,-0.37841797,0.51464844,2,37,5,-8,16,1,16,2
501.3547350168228,true,-0.6621094,-0.7158203,1.1953125,-0.7042783,0.33520204,-0.7158203,1.1953125,-7,-20,-5,-16,1,-6,2,-4
501.38265800476074,true,-0.87646484,-1.3491211,1.1923828,-0.69909734,0.33001742,-1.3491211,1.1923828,1,5,3,6,-8,-1,-5,3
501.4110859632492,true,-1.1923828,-1.7895508,1.2255859,-0.69382626,0.32695523,-1.7895508,1.2255859,-16,-3,-4,-19,-10,-7,18,13
501.4135880470276,true,-1.0976562,-1.8852539,1.0874023,-0.6967611,0.3126758,-1.8852539,1.0874023,-10,-23,-1,3,12,6,-12,0
501.44230103492737,true,-0.8105469,-1.5234375,1.0141602,-0.70213264,0.29589176,-1.5234375,1.0141602,2,7,1,10,0,1,-4,-6
501.4712960720062,true,-0.60498047,-1.1289062,0.8173828,-0.7073965,0.28124964,-1.1289062,0.8173828,2,11,0,1,-2,-4,-1,-10
501.4744369983673,true,-0.45166016,-0.9277344,0.66064453,-0.7101442,0.27551275,-0.9277344,0.66064453,-16,-35,-14,-6,-5,3,-7,-1
501.5021960735321,true,-0.32958984,-0.9838867,0.5727539,-0.7099295,0.27800283,-0.9838867,0.5727539,4,12,-4,-1,1,-2,7,3
501.5309900045395,true,-0.26708984,-1.0336914,0.4892578,-0.7087263,0.2825262,-1.0336914,0.4892578,2,14,8,1,1,2,0,6
501.5329610109329,true,-0.21728516,-0.9980469,0.44726562,-0.70727783,0.28680518,-0.9980469,0.44726562,2,-2,0,6,20,-2,-3,3
501.56215596199036,true,-0.23144531,-0.9379883,0.44873047,-0.7061651,0.29052252,-0.9379883,0.44873047,7,8,2,-1,0,-1,-1,-3
501.5918140411377,true,-0.2475586,-0.93603516,0.46289062,-0.704398,0.2940027,-0.93603516,0.46289062,-7,-29,-14,-8,4,2,-3,-2
501.59403598308563,true,-0.26708984,-0.9589844,0.4892578,-0.7022059,0.29730073,-0.9589844,0.4892578,1,10,3,2,3,-4,-5,-2
501.62240397930145,true,-0.25976562,-0.9736328,0.49804688,-0.69955194,0.30015674,-0.9736328,0.49804688,28,23,2,8,-1,2,-4,-1
501.65161097049713,true,-0.26953125,-0.94628906,0.5419922,-0.6971129,0.30235487,-0.94628906,0.5419922,-2,-1,2,5,1,-1,4,-1
501.65438199043274,true,-0.2553711,-0.9291992,0.54345703,-0.6947519,0.3041943,-0.9291992,0.54345703,-5,3,2,-4,-3,1,0,0
501.7113130092621,true,-0.2763672,-0.9326172,0.54541016,-0.69231594,0.30608872,-0.9326172,0.54541016,1,7,-2,-1,14,0,1,4
501.7129330635071,true,-0.31201172,-0.9428711,0.55126953,-0.6898791,0.30902043,-0.9428711,0.55126953,1,8,3,-5,-4,-1,-3,-2
501.71553897857666,true,-0.35302734,-0.97558594,0.5883789,-0.68757415,0.31262803,-0.97558594,0.5883789,-6,-2,5,-5,-5,-4,2,-5
501.7421040534973,false,-0.3959961,-0.9770508,0.5859375,-0.68577665,0.31591135,-0.9770508,0.5859375,-7,-6,3,1,3,-5,1,-2
501.7716009616852,false,-0.42041016,-0.9589844,0.5732422,-0.6842256,0.31959012,-0.9589844,0.5732422,-1,1,-1,2,-5,2,0,1
501.7739269733429,false,-0.34472656,-0.95654297,0.5263672,-0.68230784,0.32397264,-0.95654297,0.5263672,0,-4,-6,-4,-18,1,-7,-3
501.83165299892426,false,-0.25732422,-0.95996094,0.50634766,-0.6796235,0.32916114,-0.95996094,0.50634766,3,-3,-3,-1,-12,3,-4,-5
501.8333760499954,false,-0.21777344,-0.94628906,0.48876953,-0.6768336,0.33362544,-0.94628906,0.48876953,-2,1,-5,3,4,2,0,0
501.86198103427887,false,-0.23046875,-0.89990234,0.46484375,-0.67400956,0.33734047,-0.89990234,0.46484375,-2,-1,-3,-6,0,-3,34,15
501.8638690710068,false,-0.30322266,-0.8432617,0.33935547,-0.6715099,0.34130916,-0.8432617,0.33935547,3,1,1,1,-3,0,22,19
501.8916040658951,false,-0.31640625,-0.8652344,0.44580078,-0.66827565,0.34423918,-0.8652344,0.44580078,0,4,4,-1,4,-2,17,14
501.8940939903259,false,-0.31396484,-0.8730469,0.41992188,-0.66560036,0.34827286,-0.8730469,0.41992188,0,0,-1,-2,0,-1,0,0
501.92214000225067,false,-0.21777344,-0.8964844,0.47607422,-0.6633771,0.35149404,-0.8964844,0.47607422,-1,-1,-2,-1,-9,-5,-1,-2
501.9522269964218,false,-0.1899414,-0.86035156,0.48779297,-0.6616726,0.35351053,-0.86035156,0.48779297,-1,-5,-5,-3,2,-4,6,-3
501.95437800884247,false,-0.15625,-0.8310547,0.46679688,-0.65977776,0.3550349,-0.8310547,0.46679688,-2,-2,-3,2,0,15,-3,-4
501.98216700553894,false,-0.140625,-0.86035156,0.4560547,-0.6575771,0.35631475,-0.86035156,0.4560547,1,-3,0,9,11,31,-2,-7
502.0115079879761,false,-0.11035156,-0.8666992,0.52246094,-0.6555176,0.35717773,-0.8666992,0.52246094,0,4,5,-5,4,-11,-2,1
502.0142819881439,false,-0.140625,-0.86376953,0.5761719,-0.6532782,0.35737118,-0.86376953,0.5761719,2,-9,-7,-5,-6,-9,-5,-3
502.04221296310425,false,-0.12695312,-0.828125,0.6489258,-0.6508705,0.3580276,-0.828125,0.6489258,-5,-1,1,1,-1,-4,-1,-2
502.0716689825058,false,-0.096191406,-0.79785156,0.65283203,-0.64891106,0.35777998,-0.79785156,0.65283203,-7,-9,-7,-6,-2,-5,-3,-3
502.0741629600525,false,0.0126953125,-0.9345703,0.5444336,-0.6470439,0.35718337,-0.9345703,0.5444336,3,2,2,3,7,-2,5,5
502.1028209924698,false,0.08496094,-0.9272461,0.4663086,-0.6452403,0.35454038,-0.9272461,0.4663086,-1,-9,-8,-4,-9,-2,-8,-1
502.13147807121277,false,0.06542969,-0.8798828,0.4814453,-0.6447209,0.34930775,-0.8798828,0.4814453,-1,3,1,7,-4,-5,3,-2
502.1340720653534,false,-0.001953125,-0.79589844,0.48632812,-0.6442298,0.3418599,-0.79589844,0.48632812,-3,1,10,2,-16,-4,8,-4
502.1623240709305,false,0.036621094,-0.7519531,0.44726562,-0.64395934,0.3329351,-0.7519531,0.44726562,2,4,-1,3,4,2,-4,1
502.1919490098953,false,0.05859375,-0.6855469,0.3828125,-0.64283425,0.32361442,-0.6855469,0.3828125,-3,5,5,1,3,-2,-1,2
502.1945250034332,false,0.080078125,-0.62939453,0.3173828,-0.641309,0.3136048,-0.62939453,0.3173828,5,3,0,2,5,-2,1,3
502.2221590280533,false,0.041503906,-0.6220703,0.34570312,-0.63957095,0.303459,-0.6220703,0.34570312,-4,0,-2,-1,0,1,-5,-3
502.2521389722824,false,-0.012207031,-0.6479492,0.40576172,-0.6384167,0.2922313,-0.6479492,0.40576172,-2,-4,-4,-2,8,-3,5,1
502.2549240589142,false,-0.04736328,-0.69921875,0.43359375,-0.63824135,0.27837992,-0.69921875,0.43359375,-4,-6,-2,-11,0,-2,-1,-3
502.28217899799347,false,-0.083984375,-0.76220703,0.44140625,-0.6389237,0.2625764,-0.76220703,0.44140625,2,0,-2,-2,-1,11,-2,-2
502.3413200378418,false,-0.15136719,-0.79003906,0.46484375,-0.64008653,0.24518238,-0.79003906,0.46484375,1,1,-1,2,-2,-3,-3,1
502.34317803382874,false,-0.24169922,-0.7548828,0.47705078,-0.642031,0.226075,-0.7548828,0.47705078,0,-1,3,4,-2,-4,3,-4
502.3455469608307,false,-0.27929688,-0.80322266,0.44921875,-0.6440435,0.20581073,-0.80322266,0.44921875,0,-3,-7,-7,-1,6,-4,1
502.37158703804016,false,-0.3618164,-0.84277344,0.49658203,-0.64561665,0.18792339,-0.84277344,0.49658203,-3,2,4,-8,-9,-5,-5,-2
502.37404203414917,false,-0.4658203,-0.88964844,0.5708008,-0.6479271,0.17022125,-0.88964844,0.5708008,0,-1,-1,8,1,-8,0,-1
502.4326310157776,false,-0.55566406,-0.9272461,0.52734375,-0.6515456,0.14984022,-0.9272461,0.52734375,3,0,-1,1,-2,0,2,-3
502.43526101112366,false,-0.52978516,-0.87890625,0.45703125,-0.65574086,0.12713218,-0.87890625,0.45703125,-3,0,-1,-1,-4,-2,1,1
502.4625300168991,false,-0.7368164,-0.93652344,0.5859375,-0.66323483,0.087092675,-0.93652344,0.5859375,-3,-1,1,-11,-7,-3,0,0
502.52094304561615,false,-0.86083984,-0.9946289,0.5605469,-0.6668036,0.06964054,-0.9946289,0.5605469,-1,2,1,8,-1,0,1,1
502.52240800857544,false,-0.80859375,-0.9375,0.4584961,-0.6687424,0.051878348,-0.9375,0.4584961,1,0,0,10,-1,-5,-43,-1
502.5513310432434,false,-0.9448242,-0.8574219,0.4428711,-0.66752505,0.023681056,-0.8574219,0.4428711,-1,-1,-1,-17,5,-2,-5,-1
502.55387902259827,false,-1.09375,-0.9819336,0.53271484,-0.6666708,0.0136715425,-0.9819336,0.53271484,-1,-3,-1,2,-2,-1,-9,-2
502.5821499824524,false,-1.0004883,-1.0151367,0.3798828,-0.66438746,-0.00030515683,-1.0151367,0.3798828,1,-1,-4,7,-3,2,28,-1
502.6119910478592,false,-0.921875,-0.8300781,0.29833984,-0.66104984,-0.017272377,-0.8300781,0.29833984,-1,-3,-3,-6,0,-1,0,1
502.6145740747452,false,-0.89160156,-0.6479492,0.29541016,-0.65750486,-0.033873126,-0.6479492,0.29541016,0,2,-1,-2,3,0,6,-1
502.64237105846405,false,-0.89746094,-0.62158203,0.29052734,-0.65304404,-0.047544047,-0.62158203,0.29052734,0,-1,2,0,0,-5,-13,-2
502.6716070175171,false,-0.96972656,-0.65625,0.31982422,-0.648426,-0.057799265,-0.65625,0.31982422,0,-1,-2,3,-4,5,-10,-2
502.67391097545624,false,-0.9770508,-0.66064453,0.26464844,-0.64395803,-0.06689205,-0.66064453,0.26464844,-1,-3,-6,1,-5,0,3,-1
502.70221996307373,false,-0.9692383,-0.61376953,0.24169922,-0.64047503,-0.07525308,-0.61376953,0.24169922,-4,0,1,-4,-6,-4,4,-3
502.73139703273773,false,-0.96435547,-0.55566406,0.23291016,-0.6382693,-0.08135523,-0.55566406,0.23291016,1,-2,-2,1,-2,1,127,-1
502.7341799736023,false,-0.9746094,-0.5839844,0.23828125,-0.63652265,-0.0840437,-0.5839844,0.23828125,0,6,11,-3,-2,0,-118,2
502.79139602184296,false,-1.0004883,-0.6225586,0.26708984,-0.6348621,-0.084103055,-0.6225586,0.26708984,-1,-1,-2,-7,2,-6,-50,-3
502.7935950756073,false,-1.0175781,-0.65478516,0.24707031,-0.6330348,-0.08312702,-0.65478516,0.24707031,-1,-3,-2,2,0,-2,32,-3
502.8222670555115,false,-1.0292969,-0.64697266,0.25878906,-0.6298696,-0.08105299,-0.64697266,0.25878906,1,-2,0,-3,2,-1,-5,-1
502.85170006752014,false,-1.0366211,-0.62353516,0.2998047,-0.6290771,-0.080137596,-0.62353516,0.2998047,-2,0,-5,-2,0,-1,-3,0
502.8542740345001,false,-1.012207,-0.61279297,0.28857422,-0.6285952,-0.07830737,-0.61279297,0.28857422,0,-1,0,-1,2,3,1,-2
502.8836410045624,false,-0.9824219,-0.59277344,0.27783203,-0.6284156,-0.07452364,-0.59277344,0.27783203,0,-1,0,0,2,1,-2,0
502.9119529724121,false,-0.9506836,-0.64160156,0.27734375,-0.6282597,-0.06805028,-0.64160156,0.27734375,0,0,1,-1,-6,-3,-2,-4
502.9146679639816,false,-0.9194336,-0.70947266,0.2919922,-0.62784135,-0.058957394,-0.70947266,0.2919922,0,-2,1,2,-2,-1,-1,3
502.9425439834595,false,-0.9042969,-0.7519531,0.32226562,-0.6271759,-0.0483382,-0.7519531,0.32226562,-1,-1,-6,-4,-2,-1,-2,-3
503.0020160675049,false,-0.9135742,-0.76464844,0.34033203,-0.626496,-0.037351735,-0.76464844,0.34033203,-1,-1,0,0,3,-2,1,0
503.06282007694244,false,-0.91259766,-0.77685547,0.3388672,-0.6260148,-0.02618313,-0.77685547,0.3388672,-1,-3,-4,7,0,5,1,-4
503.0659450292587,false,-0.8925781,-0.76123047,0.33154297,-0.625907,-0.00042724027,-0.76123047,0.33154297,-3,1,1,3,-2,0,-2,-2
503.09151804447174,false,-0.8339844,-0.7939453,0.359375,-0.6256957,0.048214946,-0.7939453,0.359375,0,-5,0,-1,-2,1,-1,3
503.09404599666595,false,-0.80615234,-0.80078125,0.36816406,-0.6259636,0.064940065,-0.80078125,0.36816406,0,-2,1,-3,-6,1,-4,-4
503.12226498126984,false,-0.74853516,-0.75683594,0.33496094,-0.62626165,0.08074692,-0.75683594,0.33496094,1,-2,0,-1,2,-1,0,-1
503.1512280702591,false,-0.7026367,-0.75390625,0.32421875,-0.6264165,0.09631543,-0.75390625,0.32421875,3,-3,-2,3,-1,-1,-2,-4
503.15337800979614,false,-0.6870117,-0.7470703,0.35351562,-0.62680805,0.1119954,-0.7470703,0.35351562,-2,-2,-2,3,-5,2,1,0
503.2115180492401,false,-0.6953125,-0.7792969,0.3881836,-0.62769556,0.12738241,-0.7792969,0.3881836,-1,0,-1,5,1,3,1,0
503.2721920013428,false,-0.69433594,-0.7993164,0.3984375,-0.62920105,0.14117199,-0.7993164,0.3984375,1,1,0,1,-2,4,1,-1
503.27515602111816,false,-0.5888672,-0.76171875,0.37646484,-0.6365931,0.17211817,-0.76171875,0.37646484,-3,1,0,-4,-2,-3,-5,0
503.30179500579834,false,-0.52685547,-0.7675781,0.39746094,-0.64318097,0.18981712,-0.7675781,0.39746094,1,-4,-3,3,-2,-4,1,-4
503.3313430547714,false,-0.5107422,-0.7597656,0.3876953,-0.6467106,0.19823667,-0.7597656,0.3876953,-2,0,0,3,-5,-7,-5,-1
503.33307898044586,false,-0.51416016,-0.75634766,0.4091797,-0.6503893,0.20672566,-0.75634766,0.4091797,-1,-3,-2,-3,-2,-1,2,1
503.36149299144745,false,-0.5151367,-0.7792969,0.41601562,-0.6539912,0.21539292,-0.7792969,0.41601562,0,1,0,-5,3,0,-4,2
503.3912650346756,false,-0.52001953,-0.80029297,0.4350586,-0.6577157,0.22412139,-0.80029297,0.4350586,-3,-1,-1,-5,-1,-1,-2,-2
503.39292001724243,false,-0.51220703,-0.8300781,0.4428711,-0.6614973,0.23254333,-0.8300781,0.4428711,0,-1,-2,4,2,0,4,1
503.4217439889908,false,-0.48632812,-0.8691406,0.44921875,-0.6652611,0.23992121,-0.8691406,0.44921875,-1,0,-1,-4,-1,1,-2,-4
503.45143496990204,false,-0.48486328,-0.8754883,0.44433594,-0.66924864,0.2454217,-0.8754883,0.44433594,-3,-1,1,1,1,-2,-4,1
503.4531030654907,false,-0.48095703,-0.87109375,0.42919922,-0.6734355,0.24937987,-0.87109375,0.42919922,1,-3,1,0,1,-3,2,-1
503.4819459915161,false,-0.4716797,-0.8598633,0.43310547,-0.67762023,0.25293264,-0.8598633,0.43310547,1,0,-2,-2,-4,3,-3,-3
503.51068806648254,false,-0.44677734,-0.8486328,0.4375,-0.681586,0.25647214,-0.8486328,0.4375,-1,-2,-1,-5,2,1,-4,-3
503.51233196258545,false,-0.43066406,-0.8647461,0.43164062,-0.684976,0.2602457,-0.8647461,0.43164062,-2,-2,-1,3,-3,0,1,-1
503.5414379835129,false,-0.40527344,-0.88427734,0.42578125,-0.6879089,0.26427516,-0.88427734,0.42578125,1,-1,-2,-2,-1,-1,2,-2
503.57129096984863,false,-0.39257812,-0.89208984,0.44189453,-0.6907161,0.2682422,-0.89208984,0.44189453,-1,-1,0,1,1,0,-4,5
503.57296204566956,false,-0.37548828,-0.9111328,0.43554688,-0.69354296,0.27215597,-0.9111328,0.43554688,-2,0,-2,-1,-3,1,-1,-4
503.6011680364609,false,-0.36279297,-0.9379883,0.44970703,-0.6961661,0.27636683,-0.9379883,0.44970703,2,-2,2,4,-1,-4,-2,0
503.6309440135956,false,-0.3564453,-0.96728516,0.4560547,-0.698467,0.2813643,-0.96728516,0.4560547,0,-1,-2,-3,-4,0,1,-4
503.6326040029526,false,-0.35595703,-0.9995117,0.47998047,-0.7005019,0.28704894,-0.9995117,0.47998047,-1,0,-2,-3,0,1,-1,-2
503.66160798072815,false,-0.36279297,-1.0371094,0.5029297,-0.7021965,0.29314643,-1.0371094,0.5029297,0,-1,-3,0,2,-1,-3,1
503.69194197654724,false,-0.3774414,-1.0883789,0.5366211,-0.7035273,0.2999161,-1.0883789,0.5366211,-2,0,1,0,-2,0,3,-1
503.6944999694824,false,-0.4345703,-1.1220703,0.5629883,-0.70521903,0.3056112,-1.1220703,0.5629883,-3,0,-1,-13,-3,-3,-3,0
503.7220150232315,false,-0.4482422,-1.144043,0.5029297,-0.7070363,0.30963355,-1.144043,0.5029297,-1,-3,-1,12,0,-2,-1,0
503.75221502780914,false,-0.35595703,-1.0761719,0.38378906,-0.70916957,0.31305024,-1.0761719,0.38378906,-1,-2,0,-3,0,1,0,-4
503.7542929649353,false,-0.25927734,-1.0014648,0.3540039,-0.71147585,0.31878173,-1.0014648,0.3540039,0,0,-1,1,-2,-2,0,0
503.7820670604706,false,-0.22363281,-0.9477539,0.40722656,-0.7122138,0.3297094,-0.9477539,0.40722656,-1,-1,-3,-1,-5,-1,-2,-3
503.81187105178833,false,-0.27148438,-0.9995117,0.4970703,-0.71024597,0.34587643,-0.9995117,0.4970703,0,-2,1,0,-1,3,0,-3
503.81450402736664,false,-0.35498047,-1.1455078,0.56640625,-0.70647556,0.36431554,-1.1455078,0.56640625,-1,-1,-1,1,-2,-3,-2,5
503.8418220281601,false,-0.40820312,-1.2460938,0.5644531,-0.702831,0.3808044,-1.2460938,0.5644531,0,3,1,2,3,1,-3,0
503.8723100423813,false,-0.41259766,-1.2543945,0.515625,-0.70060354,0.39348295,-1.2543945,0.515625,-1,0,-1,-1,1,-1,0,1
503.8741750717163,false,-0.37060547,-1.1977539,0.4404297,-0.6999457,0.403073,-1.1977539,0.4404297,0,-1,-1,-3,-5,-1,0,-2
503.9022810459137,false,-0.26513672,-1.0908203,0.39892578,-0.6993398,0.41241395,-1.0908203,0.39892578,-2,-2,-7,-1,0,-2,1,-1
503.9315049648285,false,-0.21728516,-1.0415039,0.40429688,-0.6970078,0.424186,-1.0415039,0.40429688,1,0,-1,3,-1,-1,1,-3
503.93377900123596,false,-0.22216797,-1.0102539,0.46240234,-0.6925535,0.4385908,-1.0102539,0.46240234,1,-1,1,-3,-2,-3,1,-1
503.96161901950836,false,-0.22851562,-1.0541992,0.5175781,-0.685432,0.45618156,-1.0541992,0.5175781,-3,-1,0,-2,-3,1,-1,0
503.99158704280853,false,-0.19042969,-1.1298828,0.54345703,-0.67747813,0.47380745,-1.1298828,0.54345703,0,0,-1,0,-1,2,-1,3
503.9938180446625,false,-0.16210938,-1.2285156,0.5371094,-0.66980505,0.48999408,-1.2285156,0.5371094,-1,0,0,-2,1,2,-3,-1
504.02156007289886,false,-0.18457031,-1.2436523,0.5058594,-0.6625903,0.5043889,-1.2436523,0.5058594,0,-1,2,-2,-3,-2,-2,-5
504.052060008049,false,-0.1796875,-1.1669922,0.49365234,-0.65569365,0.51696223,-1.1669922,0.49365234,-3,-3,-3,0,3,-6,-4,-4
504.0539300441742,false,-0.13623047,-1.0942383,0.4716797,-0.6480835,0.52967304,-1.0942383,0.4716797,1,-2,0,4,2,-1,1,-3
504.0819239616394,false,-0.052734375,-1.0166016,0.4819336,-0.6377384,0.54393,-1.0166016,0.4819336,1,0,-3,0,1,1,-3,1
504.11199402809143,false,0.019042969,-1.0458984,0.48828125,-0.62488157,0.5590243,-1.0458984,0.48828125,-1,0,-1,4,-1,1,0,-1
504.1144150495529,false,0.06298828,-1.0966797,0.46777344,-0.6101721,0.5741001,-1.0966797,0.46777344,-5,-4,-5,-16,-13,-3,-2,-1
504.14140498638153,false,0.029296875,-0.93896484,0.6015625,-0.5950179,0.58732766,-0.93896484,0.6015625,0,4,8,-1,-3,-1,2,3
504.17149007320404,false,0.0053710938,-0.88134766,0.46435547,-0.58357304,0.59724534,-0.88134766,0.46435547,-3,-1,0,-1,7,-2,-6,-4
504.1738120317459,false,0.029296875,-0.8183594,0.38964844,-0.5736589,0.6056407,-0.8183594,0.38964844,1,-5,-2,3,23,9,3,1
504.2018049955368,false,0.083984375,-0.6411133,0.27734375,-0.5647077,0.61310947,-0.6411133,0.27734375,10,16,-1,5,5,1,2,5
504.2315809726715,false,0.16259766,-0.5517578,0.118652344,-0.55542594,0.62122256,-0.5517578,0.118652344,-1,-1,-3,-1,-5,-18,-4,-3
504.23380506038666,false,0.26904297,-0.42285156,-0.022460938,-0.5453539,0.6287286,-0.42285156,-0.022460938,-3,-2,-2,-6,-12,-10,-9,-14
504.2613890171051,false,0.46044922,-0.4404297,-0.19628906,-0.5338171,0.6376386,-0.4404297,-0.19628906,-8,8,6,2,-3,11,8,2
504.2915589809418,false,0.5175781,-0.53125,-0.018066406,-0.5242327,0.6441672,-0.53125,-0.018066406,-13,-56,-25,-6,-3,4,11,-9
504.2936420440674,false,0.32080078,-0.49609375,-0.076660156,-0.51944554,0.6495816,-0.49609375,-0.076660156,17,30,10,-7,0,-1,-7,17
504.32170498371124,false,0.4741211,-0.36621094,-0.21142578,-0.5184313,0.653868,-0.36621094,-0.21142578,-2,7,-3,6,23,2,-5,15
504.3517950773239,false,0.85791016,-0.27734375,-0.28955078,-0.52479434,0.65388715,-0.27734375,-0.28955078,-2,-4,-2,6,-23,-17,-1,-11
504.3541259765625,false,0.6879883,-0.31640625,-0.12646484,-0.531512,0.65376955,-0.31640625,-0.12646484,4,4,6,-1,2,6,4,-1
504.3817870616913,false,0.43896484,-0.56347656,0.29248047,-0.53699154,0.6535696,-0.56347656,0.29248047,-6,-9,-2,-3,1,-3,-3,-15
504.41212499141693,false,0.47998047,-0.9736328,0.43652344,-0.54223937,0.6535681,-0.9736328,0.43652344,-3,-2,-2,2,-4,7,-3,15
504.414381980896,false,0.6821289,-1.112793,0.34765625,-0.54974896,0.65058,-1.112793,0.34765625,5,0,2,-10,8,10,5,-3
504.44149696826935,false,0.71875,-0.8989258,0.25830078,-0.55756193,0.6457586,-0.8989258,0.25830078,-5,-17,-11,1,-5,-8,-3,-13
504.4716910123825,false,0.61621094,-0.74121094,0.103027344,-0.56158555,0.64325076,-0.74121094,0.103027344,-2,5,5,0,-8,-6,-3,2
504.4736020565033,false,0.6376953,-0.7480469,0.08642578,-0.56124634,0.64377004,-0.7480469,0.08642578,0,3,0,-4,-5,0,-1,-3
504.50152599811554,false,0.5859375,-0.78515625,0.12451172,-0.56200343,0.64336205,-0.78515625,0.12451172,-1,1,2,4,1,1,-5,1
504.53131103515625,false,0.5683594,-0.8183594,0.11279297,-0.56521505,0.6409636,-0.8183594,0.11279297,1,1,1,0,-5,-9,6,4
504.53327798843384,false,0.55859375,-0.796875,0.10107422,-0.5694751,0.6378365,-0.796875,0.10107422,-3,-2,-1,-2,-5,9,2,-5
504.56158697605133,false,0.5361328,-0.82373047,0.115722656,-0.57360125,0.63481873,-0.82373047,0.115722656,0,0,-2,-2,-1,2,-12,-20
504.591441988945,false,0.51904297,-0.92089844,0.14355469,-0.5777057,0.6320887,-0.92089844,0.14355469,0,3,-1,1,-7,-15,4,22
504.59376299381256,false,0.50097656,-0.97509766,0.20654297,-0.5816605,0.6294507,-0.97509766,0.20654297,-1,-3,1,-2,-1,-6,-5,8
504.6219370365143,false,0.5229492,-0.97998047,0.24804688,-0.58581007,0.62652016,-0.97998047,0.24804688,1,-2,-2,-4,-4,1,-1,-24
504.65247797966003,false,0.53027344,-0.94384766,0.25146484,-0.59069175,0.62273484,-0.94384766,0.25146484,1,0,3,4,1,7,-1,13
504.65419805049896,false,0.52734375,-0.9350586,0.25390625,-0.5948657,0.61940247,-0.9350586,0.25390625,-2,-3,-1,-10,0,3,1,0
504.6827690601349,true,0.5444336,-0.91503906,0.23730469,-0.59808266,0.61675936,-0.91503906,0.23730469,-1,-7,-3,2,6,0,3,-6
504.7117179632187,true,0.5078125,-0.8808594,0.25146484,-0.60090226,0.6142082,-0.8808594,0.25146484,-2,-1,0,2,8,4,-4,-6
504.7138240337372,true,0.5019531,-0.8232422,0.2529297,-0.6041968,0.61121595,-0.8232422,0.2529297,-2,0,-1,1,-2,4,-3,3
504.74152505397797,true,0.48095703,-0.75390625,0.23730469,-0.60842013,0.6076266,-0.75390625,0.23730469,2,3,2,6,7,-3,5,10
504.7716850042343,true,0.5131836,-0.671875,0.25634766,-0.6135765,0.6032617,-0.671875,0.25634766,0,-7,-7,-4,-6,-5,-3,-1
504.7739200592041,true,0.5385742,-0.6010742,0.23779297,-0.6201076,0.597586,-0.6010742,0.23779297,0,4,2,2,3,2,-1,3
504.801784992218,true,0.5546875,-0.5078125,0.2163086,-0.6285405,0.58984417,-0.5078125,0.2163086,-1,5,2,-2,-8,-1,-4,4
504.8315039873123,true,0.6591797,-0.48388672,0.056152344,-0.6379102,0.58157194,-0.48388672,0.056152344,2,-2,-6,-1,-1,-5,0,1
504.834077000618,true,0.6435547,-0.54003906,-0.07470703,-0.6464993,0.5738047,-0.54003906,-0.07470703,-3,2,5,-1,-4,1,-2,-9
504.8615939617157,true,0.55322266,-0.5205078,-0.115722656,-0.65540415,0.56427747,-0.5205078,-0.115722656,-3,-9,-10,-3,-11,-1,0,-5
504.8916109800339,true,0.42236328,-0.6142578,-0.037597656,-0.6626006,0.5556055,-0.6142578,-0.037597656,-17,2,-23,-6,0,0,1,-3
504.8936220407486,true,0.17041016,-0.8041992,0.22216797,-0.6690316,0.5465294,-0.8041992,0.22216797,-21,-76,6,-11,12,2,0,-1
504.9220720529556,true,0.064453125,-1.2070312,0.3540039,-0.68019897,0.5317564,-1.2070312,0.3540039,16,-79,-6,-17,5,-7,-4,-6
504.953076004982,true,0.05908203,-1.46875,0.22070312,-0.69948673,0.5030079,-1.46875,0.22070312,-3,69,39,13,-35,-16,-52,25
504.95465898513794,true,-0.08544922,-1.3056641,0.24169922,-0.71989346,0.467946,-1.3056641,0.24169922,-14,20,-23,19,0,8,28,3
504.98152005672455,true,-0.48339844,-0.47802734,0.24169922,-0.73970735,0.42793038,-0.47802734,0.24169922,-3,8,8,-8,-10,-5,6,-17
505.01164996623993,true,-1.1191406,-0.49023438,1.0551758,-0.7502839,0.40379715,-0.49023438,1.0551758,22,55,7,9,0,12,-2,-19
505.0139390230179,true,-1.4345703,-0.9199219,1.3442383,-0.74992335,0.4027626,-0.9199219,1.3442383,15,41,39,4,13,5,11,29
505.04175996780396,true,-0.921875,-1.4306641,0.8588867,-0.7462763,0.40405244,-1.4306641,0.8588867,4,-29,-28,7,19,10,-10,-15
505.07155096530914,true,-0.6308594,-1.5615234,0.84716797,-0.74301755,0.40825072,-1.5615234,0.84716797,-6,6,2,-3,3,-3,4,-2
505.073539018631,true,-0.26757812,-1.5390625,0.71240234,-0.7446349,0.4050936,-1.5390625,0.71240234,1,9,-17,8,32,7,4,-2
505.10225105285645,true,-0.2626953,-1.1889648,0.49121094,-0.7480932,0.39751416,-1.1889648,0.49121094,-7,2,-6,-11,-5,-4,0,-4
505.1315690279007,true,-0.21533203,-0.9326172,0.39892578,-0.75036407,0.39324838,-0.9326172,0.39892578,14,3,-4,-3,-6,-3,4,4
505.1340379714966,true,-0.25341797,-0.95410156,0.43798828,-0.74959207,0.39509073,-0.95410156,0.43798828,-7,-7,6,-5,-20,-7,2,-2
505.16154396533966,true,-0.2998047,-1.0478516,0.4326172,-0.74711853,0.40013963,-1.0478516,0.4326172,0,-5,5,0,8,-2,-4,-1
505.19183099269867,true,-0.3232422,-1.0610352,0.4428711,-0.7454179,0.4041724,-1.0610352,0.4428711,1,-3,-4,2,0,1,-3,-3
505.1940380334854,true,-0.32226562,-1.03125,0.4189453,-0.744295,0.40721083,-1.03125,0.4189453,-12,-42,-20,-9,-11,-4,0,-6
505.221755027771,true,-0.34472656,-0.9916992,0.43310547,-0.74308187,0.41044974,-0.9916992,0.43310547,2,6,2,1,-1,1,2,-1
505.2536050081253,true,-0.34960938,-1.0,0.3857422,-0.7413627,0.41422808,-1.0,0.3857422,19,3,-1,2,14,5,-5,4
505.2543640136719,true,-0.3466797,-1.0195312,0.42236328,-0.73905575,0.4191177,-1.0195312,0.42236328,-7,2,2,-1,-3,-1,2,-3
505.2814600467682,false,-0.36035156,-1.0048828,0.37451172,-0.73680514,0.42363855,-1.0048828,0.37451172,-4,3,6,-2,0,-1,-5,-3
505.3116730451584,false,-0.39990234,-1.0019531,0.36083984,-0.7343765,0.42846766,-1.0019531,0.36083984,3,8,4,3,1,3,-5,0
505.31350207328796,false,-0.4008789,-0.9814453,0.3623047,-0.731702,0.4334181,-0.9814453,0.3623047,-6,0,-1,-5,-1,-8,3,0
505.3414920568466,false,-0.35986328,-0.9970703,0.35498047,-0.7284059,0.43860605,-0.9970703,0.35498047,-4,-3,-4,0,-5,-2,2,2
505.37183606624603,false,-0.33447266,-0.97558594,0.3544922,-0.7250458,0.44281566,-0.97558594,0.3544922,2,3,1,-3,-7,-3,-3,-3
505.37401807308197,false,-0.3071289,-0.95654297,0.32226562,-0.7221112,0.44580343,-0.95654297,0.32226562,-4,3,-2,-4,-5,-5,-5,-1
505.40263402462006,false,-0.2421875,-0.9555664,0.33398438,-0.71929187,0.44829857,-0.9555664,0.33398438,-2,-2,-2,-2,-5,-4,0,-1
505.4316769838333,false,-0.19482422,-0.8964844,0.35351562,-0.71599686,0.45055738,-0.8964844,0.35351562,-2,-2,-3,0,-5,0,-1,-2
505.4340879917145,false,-0.23486328,-0.84716797,0.36083984,-0.7129441,0.45220467,-0.84716797,0.36083984,-2,1,0,-1,-5,-6,0,-2
505.46255004405975,false,-0.2319336,-0.8486328,0.31640625,-0.7097148,0.45397818,-0.8486328,0.31640625,-5,-6,-2,0,1,3,-3,1
505.4918780326843,false,-0.26757812,-0.83740234,0.35791016,-0.7066085,0.45563033,-0.83740234,0.35791016,4,4,3,7,4,9,0,-1
505.49490201473236,false,-0.20410156,-0.8671875,0.4140625,-0.7043342,0.45574206,-0.8671875,0.4140625,5,-3,-10,-3,-3,8,-6,-1
505.5217720270157,false,-0.13378906,-0.87646484,0.42236328,-0.7025499,0.45377973,-0.87646484,0.42236328,-3,-7,-8,-4,0,2,-6,-2
505.55136501789093,false,-0.14941406,-0.7495117,0.43945312,-0.70210433,0.44941267,-0.7495117,0.43945312,0,6,-3,4,1,-7,-4,1
505.55471205711365,false,-0.16894531,-0.7504883,0.43847656,-0.7017802,0.44506708,-0.7504883,0.43847656,-3,-2,6,-4,-2,-13,6,-1
505.5821989774704,false,-0.07128906,-0.7973633,0.3881836,-0.69915515,0.44305256,-0.7973633,0.3881836,0,3,6,0,-3,-8,0,1
505.61108696460724,false,-0.08691406,-0.8935547,0.4243164,-0.6965724,0.43968347,-0.8935547,0.4243164,-4,-13,-9,-8,-6,3,1,2
505.6138319969177,false,-0.06201172,-0.890625,0.4663086,-0.6948119,0.43291467,-0.890625,0.4663086,-1,0,3,-2,-6,-2,-1,-3
505.6419429779053,false,-0.0063476562,-0.92333984,0.46142578,-0.6942634,0.4222342,-0.92333984,0.46142578,5,4,-1,2,4,4,-4,0
505.67205798625946,false,-0.040039062,-0.84228516,0.4819336,-0.6943547,0.40851936,-0.84228516,0.4819336,-5,3,9,2,-6,-2,2,-5
505.7018200159073,false,0.008300781,-0.7348633,0.42236328,-0.6943999,0.39233562,-0.7348633,0.42236328,3,-2,-5,2,1,-12,-2,-2
505.70477402210236,false,-0.018066406,-0.68896484,0.421875,-0.6943114,0.37425432,-0.68896484,0.421875,-1,4,5,-1,-5,1,-2,-1
505.7316629886627,false,-0.1430664,-0.7817383,0.5859375,-0.69464666,0.35663128,-0.7817383,0.5859375,-3,-3,-3,0,2,4,5,-1
505.73408806324005,false,-0.2265625,-0.9169922,0.67871094,-0.6963966,0.33800563,-0.9169922,0.67871094,0,-3,-3,1,0,-4,2,2
505.7624490261078,false,-0.17773438,-0.89746094,0.5708008,-0.69861364,0.3167138,-0.89746094,0.5708008,2,-1,-4,2,6,6,0,-1
505.7918620109558,false,-0.123046875,-0.77978516,0.45458984,-0.69981015,0.29405943,-0.77978516,0.45458984,-1,0,0,-3,-4,-1,-7,-2
505.7950199842453,false,-0.11669922,-0.71240234,0.42138672,-0.6998251,0.27276456,-0.71240234,0.42138672,-2,-1,2,-3,0,-2,1,2
505.8525470495224,false,-0.2993164,-0.71875,0.5756836,-0.6989552,0.25621846,-0.71875,0.5756836,-1,-2,-1,-1,6,-3,0,0
505.8545860052109,false,-0.3984375,-0.82470703,0.6303711,-0.69957894,0.24035439,-0.82470703,0.6303711,-3,-2,-1,-1,4,3,-2,-3
505.88221299648285,false,-0.30859375,-0.9165039,0.39208984,-0.7013568,0.20111136,-0.9165039,0.39208984,-1,0,-1,4,0,0,-2,-4
505.9115730524063,false,-0.39746094,-0.7944336,0.42138672,-0.70140696,0.18072277,-0.7944336,0.42138672,-1,-3,-4,-1,1,1,1,-1
505.9142110347748,false,-0.6464844,-0.7763672,0.4814453,-0.70194376,0.16314195,-0.7763672,0.4814453,-4,-3,-4,-10,-2,-10,-9,3
505.94258403778076,false,-0.70214844,-0.8964844,0.421875,-0.7020717,0.14696938,-0.8964844,0.421875,1,1,-4,-1,7,4,4,-1
505.9723650217056,false,-0.65234375,-1.0063477,0.3618164,-0.7005298,0.13231823,-1.0063477,0.3618164,1,-5,-6,7,-7,-1,-1,-1
505.9747700691223,false,-0.6894531,-0.9604492,0.47753906,-0.69908416,0.115720585,-0.9604492,0.47753906,-1,-3,-5,1,-10,0,2,-4
506.00227296352386,false,-0.92822266,-0.9291992,0.50683594,-0.6997445,0.09624921,-0.9291992,0.50683594,-4,-3,-1,-6,-3,2,-6,2
506.03152298927307,false,-1.078125,-0.9814453,0.45947266,-0.702665,0.073543936,-0.9814453,0.45947266,2,3,5,-8,2,-1,-6,1
506.03413796424866,false,-0.96484375,-0.8588867,0.34570312,-0.70360374,0.054076415,-0.8588867,0.34570312,0,0,0,3,-1,2,2,-4
506.0621510744095,false,-0.8911133,-0.7324219,0.29589844,-0.701213,0.04278443,-0.7324219,0.29589844,-2,-1,-1,1,-1,3,3,-4
506.0914180278778,false,-0.87890625,-0.7290039,0.2685547,-0.6970716,0.036925692,-0.7290039,0.2685547,1,0,-3,1,-1,-1,-2,-4
506.0941330194473,false,-0.91552734,-0.7446289,0.2788086,-0.69230825,0.032225933,-0.7446289,0.2788086,0,1,-1,4,1,-1,2,-6
506.122447013855,false,-1.0214844,-0.6855469,0.24072266,-0.68831724,0.02465687,-0.6855469,0.24072266,-2,-1,0,0,-2,-2,-2,-3
506.15144896507263,false,-1.1333008,-0.83740234,0.19384766,-0.6840535,0.01916424,-0.83740234,0.19384766,1,-1,0,-3,3,-3,-1,3
506.15439105033875,false,-1.1083984,-0.77441406,0.3408203,-0.68188965,0.015991325,-0.77441406,0.3408203,-4,3,4,0,2,2,-2,3
506.18235206604004,false,-1.0068359,-0.7504883,0.15234375,-0.67717063,0.011230229,-0.7504883,0.15234375,0,-1,-4,-5,0,-3,-2,2
506.21155202388763,false,-1.0185547,-0.70751953,0.087402344,-0.6716098,0.006286424,-0.70751953,0.087402344,-1,2,5,-4,-2,-4,2,-2
506.2415180206299,false,-1.0410156,-0.6298828,0.08203125,-0.6669498,0.0016478446,-0.6298828,0.08203125,0,-1,-5,0,1,-2,3,3
506.24386501312256,false,-1.0415039,-0.5566406,0.087402344,-0.6634832,-0.0020140691,-0.5566406,0.087402344,-1,-1,3,-1,-5,2,1,-3
506.2715719938278,false,-1.0205078,-0.5332031,0.12939453,-0.66111547,-0.0029296107,-0.5332031,0.12939453,1,2,4,2,1,2,-3,-3
506.27455699443817,false,-0.99853516,-0.5258789,0.12060547,-0.6589805,-0.0015868753,-0.5258789,0.12060547,-1,-1,-2,1,0,1,0,0
506.3022689819336,false,-0.98583984,-0.5307617,0.11376953,-0.65695864,0.0009765271,-0.5307617,0.11376953,-2,-1,-2,-1,1,-2,-1,-4
506.33208405971527,false,-0.96972656,-0.50146484,0.10449219,-0.65537363,0.0031737222,-0.50146484,0.10449219,-6,6,11,-3,-10,-3,-5,1
506.3346680402756,false,-0.98095703,-0.49560547,0.12939453,-0.6544371,0.00524868,-0.49560547,0.12939453,-2,-3,-1,-5,-5,-6,-2,-1
506.3625659942627,false,-0.96435547,-0.49951172,0.15234375,-0.6538592,0.007995478,-0.49951172,0.15234375,2,-2,-3,5,4,0,1,1
506.3922530412674,false,-0.9482422,-0.5136719,0.140625,-0.65304893,0.0107417395,-0.5136719,0.140625,0,-3,-2,-1,0,-2,-3,0
506.3947900533676,false,-0.9355469,-0.53027344,0.140625,-0.6520346,0.013061444,-0.53027344,0.140625,-1,-1,-3,1,3,4,0,-1
506.4223470687866,false,-0.93115234,-0.5317383,0.14013672,-0.6511667,0.014281845,-0.5317383,0.14013672,-1,-4,-2,-2,-6,-3,-1,0
506.4523069858551,false,-0.92871094,-0.5390625,0.1352539,-0.6503479,0.014586444,-0.5390625,0.1352539,-1,-1,-3,-3,0,0,0,-2
506.45469105243683,false,-0.92871094,-0.54003906,0.14257812,-0.64940053,0.01446503,-0.54003906,0.14257812,-1,1,-2,-2,-2,1,-1,-2
506.48250007629395,false,-0.94873047,-0.54345703,0.15039062,-0.64856166,0.014038132,-0.54345703,0.15039062,0,-1,-1,1,-5,2,-2,2
506.51191306114197,false,-0.95996094,-0.5473633,0.15185547,-0.64798814,0.013549343,-0.5473633,0.15185547,-1,-3,-7,-5,0,-4,-5,-4
506.51421201229095,false,-0.97509766,-0.5698242,0.15673828,-0.6477583,0.012939298,-0.5698242,0.15673828,0,0,-1,1,-2,0,-5,-2
506.5714100599289,false,-0.97753906,-0.59765625,0.140625,-0.64755875,0.012206574,-0.59765625,0.140625,2,0,-3,1,0,-2,1,-4
506.57378804683685,false,-0.9946289,-0.61816406,0.14111328,-0.6474879,0.0120232925,-0.61816406,0.14111328,-2,-3,0,6,5,1,1,-3
506.60248601436615,false,-1.0273438,-0.6611328,0.19335938,-0.6488505,0.014342947,-0.6611328,0.19335938,2,-1,0,-2,0,0,-3,2
506.6315350532532,false,-1.0361328,-0.6923828,0.23828125,-0.65063405,0.017822247,-0.6923828,0.23828125,0,-2,-3,-3,5,10,-1,1
506.63409101963043,false,-1.0029297,-0.70996094,0.23925781,-0.65257114,0.022826564,-0.70996094,0.23925781,-2,0,-2,3,-3,-3,1,-1
506.66221606731415,false,-0.9760742,-0.7739258,0.25976562,-0.65426636,0.031248543,-0.7739258,0.25976562,-2,0,1,-3,-7,-2,1,-3
506.6916170120239,false,-0.94628906,-0.80810547,0.29785156,-0.6559939,0.042845897,-0.80810547,0.29785156,-2,0,-1,0,-1,-2,-4,-2
506.6942460536957,false,-0.9091797,-0.83447266,0.3256836,-0.65789396,0.05639614,-0.83447266,0.3256836,0,-1,0,0,0,-4,0,0
506.72236597537994,false,-0.8774414,-0.8417969,0.34960938,-0.6599319,0.07183389,-0.8417969,0.34960938,-1,-3,-3,0,-3,1,-4,1
506.7522929906845,false,-0.8574219,-0.8359375,0.3881836,-0.66222674,0.0894769,-0.8359375,0.3881836,0,-1,0,-1,2,-1,-4,2
506.7815910577774,false,-0.81884766,-0.8901367,0.40673828,-0.6640382,0.10967616,-0.8901367,0.40673828,-1,1,1,-3,-4,0,-2,1
506.7838419675827,false,-0.8051758,-0.9448242,0.43066406,-0.6648351,0.13207594,-0.9448242,0.43066406,2,-2,-3,-1,-4,1,-2,-2
506.81175196170807,false,-0.77978516,-0.9892578,0.43652344,-0.66467166,0.15600558,-0.9892578,0.43652344,0,-1,2,-3,0,-1,4,-1
506.8412940502167,false,-0.7446289,-1.0332031,0.44873047,-0.6639142,0.18071796,-1.0332031,0.44873047,0,1,-1,20,-3,-3,1,0
506.84304106235504,false,-0.71191406,-1.0551758,0.47460938,-0.66228354,0.20641811,-1.0551758,0.47460938,-3,-2,0,-31,0,3,-3,-2
506.8715590238571,false,-0.67822266,-1.0444336,0.4814453,-0.6598295,0.23308565,-1.0444336,0.4814453,-1,1,0,8,-3,-1,-2,-2
506.9013180732727,false,-0.6323242,-1.0439453,0.47753906,-0.65643877,0.26013407,-1.0439453,0.47753906,-1,1,1,1,1,-2,0,0
506.9035600423813,false,-0.5629883,-1.0527344,0.4609375,-0.6519033,0.2877139,-1.0527344,0.4609375,0,-2,2,2,-1,0,-2,-2
506.93167102336884,false,-0.47021484,-1.0708008,0.44873047,-0.6462395,0.31555143,-1.0708008,0.44873047,-1,-2,-5,0,3,-1,-2,0
506.96172201633453,false,-0.41552734,-1.0693359,0.4736328,-0.6389113,0.34386954,-1.0693359,0.4736328,-1,-1,-1,1,-4,0,1,0
506.96301305294037,false,-0.38134766,-1.0507812,0.5029297,-0.6308522,0.3715168,-1.0507812,0.5029297,3,2,1,1,-2,-1,-1,2
506.9918689727783,false,-0.3383789,-1.0439453,0.49365234,-0.6226807,0.39788824,-1.0439453,0.49365234,1,-1,0,-1,0,0,1,0
507.0215950012207,false,-0.28125,-0.99121094,0.48339844,-0.61541945,0.42199844,-0.99121094,0.48339844,-2,2,-3,-1,-4,-1,2,-5
507.0240659713745,false,-0.203125,-1.0239258,0.40185547,-0.6075558,0.44623676,-1.0239258,0.40185547,-2,-2,1,-2,-8,-1,-2,-1
507.0514760017395,false,-0.19482422,-1.0131836,0.4897461,-0.59784216,0.47174293,-1.0131836,0.4897461,-4,-4,-4,2,5,-2,-5,-1
507.0812929868698,false,-0.16259766,-1.0073242,0.48632812,-0.5887349,0.49553588,-1.0073242,0.48632812,-3,-2,0,1,3,-7,-3,3
507.08302307128906,false,-0.10644531,-0.94921875,0.4819336,-0.5802698,0.51691437,-0.94921875,0.4819336,1,-2,-3,1,23,14,5,0
507.1114649772644,false,-0.068847656,-0.8881836,0.50097656,-0.5724506,0.5371111,-0.8881836,0.50097656,-2,-2,0,-23,-12,7,-1,-4
507.1413060426712,false,-0.048828125,-0.80029297,0.42822266,-0.5655596,0.5562211,-0.80029297,0.42822266,3,1,-1,6,29,6,1,-1
507.14293599128723,false,0.00048828125,-0.7817383,0.38134766,-0.5571812,0.57536936,-0.7817383,0.38134766,6,8,7,6,-4,1,0,6
507.1716470718384,false,0.09472656,-0.7446289,0.26757812,-0.54913396,0.5922859,-0.7446289,0.26757812,8,9,5,6,-1,6,9,4
507.2013410329819,false,0.1899414,-0.66259766,0.18896484,-0.54162836,0.6062649,-0.66259766,0.18896484,-8,-4,-2,-5,-7,1,-7,-1
507.20332300662994,false,0.30273438,-0.55371094,0.05078125,-0.53527373,0.6184029,-0.55371094,0.05078125,-5,-1,-1,-2,-4,-13,-6,-3
507.2319030761719,false,0.37402344,-0.46826172,-0.040039062,-0.5291404,0.62906,-0.46826172,-0.040039062,-6,-3,-2,0,-9,-12,-2,-7
507.26158797740936,false,0.44580078,-0.44970703,-0.06982422,-0.5224771,0.6389968,-0.44970703,-0.06982422,-6,-8,-6,-3,-4,-8,0,-6
507.26397800445557,false,0.43847656,-0.4423828,0.056640625,-0.51638556,0.6484118,-0.4423828,0.056640625,2,0,0,0,-5,-6,-9,-7
507.2915309667587,false,0.49316406,-0.52246094,0.017578125,-0.5126632,0.65634805,-0.52246094,0.017578125,-1,-10,-5,-2,0,2,1,-2
507.3213059902191,false,0.5541992,-0.63720703,-0.07080078,-0.511122,0.66231006,-0.63720703,-0.07080078,4,-1,-4,14,0,2,-2,1
507.32336604595184,false,0.56884766,-0.67529297,0.0034179688,-0.512961,0.6655553,-0.67529297,0.0034179688,-5,-11,-1,3,-1,0,3,4
507.35153698921204,false,0.6171875,-0.6772461,0.061523438,-0.51806563,0.66540426,-0.6772461,0.061523438,-9,2,2,-1,2,-7,-8,-2
507.38145303726196,false,0.62890625,-0.64746094,0.0703125,-0.5252951,0.6631805,-0.64746094,0.0703125,3,7,2,-3,-20,-3,-4,4
507.38306498527527,false,0.65478516,-0.6015625,0.061035156,-0.532118,0.6607223,-0.6015625,0.061035156,-5,-1,2,-5,3,0,3,-1
507.41155898571014,false,0.60791016,-0.7167969,0.096191406,-0.53670466,0.6598177,-0.7167969,0.096191406,4,4,-2,-6,-5,-18,-4,1
507.4412770271301,false,0.64501953,-0.8276367,0.17822266,-0.5404701,0.65869606,-0.8276367,0.17822266,1,-3,-2,0,2,3,3,-1
507.44318997859955,false,0.6904297,-0.8120117,0.18798828,-0.5444575,0.6564619,-0.8120117,0.18798828,0,0,-1,-4,0,3,-4,1
507.4719990491867,false,0.68359375,-0.80322266,0.16894531,-0.54858327,0.6535636,-0.80322266,0.16894531,14,13,6,7,7,4,3,0
507.5017570257187,false,0.6645508,-0.8125,0.15234375,-0.551584,0.6513171,-0.8125,0.15234375,-6,-6,-5,-10,-2,-1,0,-1
507.50562500953674,false,0.6513672,-0.8203125,0.16796875,-0.5531624,0.6497812,-0.8203125,0.16796875,-2,-4,-3,-2,-6,0,1,-3
507.53089702129364,false,0.6582031,-0.8520508,0.17919922,-0.5540746,0.6483734,-0.8520508,0.17919922,2,3,-2,-1,3,2,-3,-1
507.560909986496,false,0.6020508,-0.8408203,0.22607422,-0.55581063,0.64632976,-0.8408203,0.22607422,-7,-6,-2,-6,-12,-13,-2,0
507.5628880262375,false,0.6274414,-0.7973633,0.19628906,-0.5581124,0.6439289,-0.7973633,0.19628906,-2,-4,-3,5,0,2,3,-1
507.59108996391296,false,0.63427734,-0.80566406,0.17382812,-0.55971044,0.6421716,-0.80566406,0.17382812,2,-3,-2,-2,2,-1,2,1
507.62101900577545,false,0.6225586,-0.80126953,0.20214844,-0.5609322,0.64095205,-0.80126953,0.20214844,-3,-2,-3,-3,0,6,-3,-1
507.62325501441956,false,0.6484375,-0.8051758,0.2319336,-0.5620757,0.63977385,-0.8051758,0.2319336,1,4,3,3,0,2,-4,-3
507.6511729955673,false,0.6489258,-0.80859375,0.22314453,-0.5636152,0.6384465,-0.80859375,0.22314453,3,4,4,1,-3,2,0,3
507.6814329624176,false,0.62158203,-0.79785156,0.19726562,-0.56575143,0.63698155,-0.79785156,0.19726562,-8,-11,-7,-4,-1,1,-8,-6
507.6833989620209,false,0.6455078,-0.7895508,0.1796875,-0.56714284,0.6361131,-0.7895508,0.1796875,3,3,2,0,-3,-2,-4,-1
507.7117010354996,false,0.62402344,-0.8129883,0.19384766,-0.56783205,0.6359499,-0.8129883,0.19384766,-1,-8,-6,-11,-11,2,-2,1
507.7418609857559,false,0.60595703,-0.8222656,0.2319336,-0.5689787,0.63587433,-0.8222656,0.2319336,-7,-6,-7,-2,0,-1,3,-1
507.7447180747986,false,0.6381836,-0.81591797,0.23046875,-0.57026416,0.6356343,-0.81591797,0.23046875,1,2,-2,5,1,1,2,-2
507.77165699005127,false,0.6435547,-0.8432617,0.22607422,-0.57160944,0.6354539,-0.8432617,0.22607422,0,2,4,8,15,4,13,-5
507.80147302150726,false,0.609375,-0.8203125,0.21923828,-0.5729398,0.6353791,-0.8203125,0.21923828,3,2,2,-3,3,-1,-2,-1
507.80363297462463,false,0.5942383,-0.82373047,0.20361328,-0.5737949,0.6358681,-0.82373047,0.20361328,1,4,2,1,-10,-3,-9,0
507.8314770460129,false,0.5996094,-0.82177734,0.20703125,-0.57476866,0.6362311,-0.82177734,0.20703125,0,3,0,14,3,0,5,3
507.8616820573807,false,0.56933594,-0.8066406,0.18847656,-0.5759197,0.63670987,-0.8066406,0.18847656,-5,-13,-5,-5,-3,-4,-2,-2
507.86375200748444,false,0.5541992,-0.82666016,0.18603516,-0.577159,0.63721865,-0.82666016,0.18603516,-5,-7,-8,-9,6,6,5,1
507.89155900478363,false,0.5366211,-0.84375,0.1743164,-0.5785702,0.637532,-0.84375,0.1743164,1,8,4,-1,-3,-4,-5,-1
507.92172503471375,false,0.5361328,-0.81152344,0.19335938,-0.5805709,0.6374561,-0.81152344,0.19335938,1,-6,2,3,14,7,4,-2
507.9236750602722,false,0.57128906,-0.81640625,0.16699219,-0.58318955,0.63690037,-0.81640625,0.16699219,5,7,3,-2,-8,0,-7,5
507.9517910480499,false,0.5625,-0.8022461,0.14013672,-0.5863669,0.6357445,-0.8022461,0.14013672,-2,6,-1,-11,-19,-13,-3,-2
507.9812650680542,true,0.58447266,-0.75927734,0.11816406,-0.58942467,0.6344692,-0.75927734,0.11816406,-9,-17,-4,-2,5,1,-6,0
507.98339903354645,true,0.6176758,-0.7270508,0.119140625,-0.5926018,0.63288575,-0.7270508,0.119140625,1,-9,-6,0,10,7,3,-4
508.01149904727936,true,0.6401367,-0.69677734,0.15332031,-0.59649837,0.6309223,-0.69677734,0.15332031,2,7,1,4,-4,-12,0,-4
508.0416920185089,true,0.67871094,-0.61816406,0.16503906,-0.6021189,0.62738776,-0.61816406,0.16503906,-5,0,-4,1,-11,0,-4,-4
508.04426205158234,true,0.71875,-0.60058594,0.087890625,-0.6083572,0.6234944,-0.60058594,0.087890625,3,1,-1,3,-1,-1,1,-3
508.07152104377747,true,0.7084961,-0.62890625,0.041503906,-0.6146936,0.6198206,-0.62890625,0.041503906,2,2,2,8,10,-1,0,4
508.1015909910202,true,0.69970703,-0.5839844,0.02734375,-0.6203604,0.61651516,-0.5839844,0.02734375,2,-14,-7,11,-12,1,6,2
508.1046360731125,true,0.7055664,-0.5332031,0.02734375,-0.6255052,0.61268747,-0.5332031,0.02734375,-2,4,-3,-4,-2,-12,-5,-2
508.1315380334854,true,0.63378906,-0.5600586,-0.016601562,-0.63105834,0.60804754,-0.5600586,-0.016601562,-8,-6,-14,-2,3,-1,0,-2
508.16171407699585,true,0.5126953,-0.6333008,-0.040527344,-0.63665694,0.6031487,-0.6333008,-0.040527344,18,107,42,-3,9,6,-1,31
508.16397404670715,true,0.3310547,-0.7836914,0.0703125,-0.6431245,0.5963108,-0.7836914,0.0703125,-29,-68,-3,-32,9,1,3,-1
508.1920419931412,true,0.14355469,-1.0844727,0.22021484,-0.6542356,0.58489966,-1.0844727,0.22021484,-16,95,6,-32,8,-5,-5,-16
508.2223119735718,true,0.21240234,-1.4023438,0.19384766,-0.67260075,0.56328785,-1.4023438,0.19384766,33,-42,-11,9,-8,4,-23,4
508.22425305843353,true,0.27441406,-1.3212891,0.088378906,-0.6967268,0.5307087,-1.3212891,0.088378906,-5,17,25,12,-21,-10,32,5
508.2516039609909,true,-0.16845703,-0.54833984,-0.0068359375,-0.72179455,0.48986325,-0.54833984,-0.0068359375,-2,-21,-5,13,-1,-1,-11,-13
508.28159499168396,true,-1.1005859,0.19091797,0.96728516,-0.7357243,0.46686202,0.19091797,0.96728516,-1,-54,-28,-2,-13,-20,-1,-25
508.28404700756073,true,-1.4697266,-0.9736328,1.7202148,-0.7295434,0.48149985,-0.9736328,1.7202148,-1,-23,-5,3,27,10,1,91
508.31174302101135,true,-0.6464844,-1.7592773,0.95214844,-0.719771,0.4913217,-1.7592773,0.95214844,-16,3,5,-8,-11,-1,-12,-69
508.3136249780655,true,-0.21289062,-1.6538086,0.6665039,-0.71144056,0.5025129,-1.6538086,0.6665039,11,16,1,4,9,-4,11,3
508.34246599674225,true,0.26123047,-1.5991211,0.7446289,-0.7161233,0.49670255,-1.5991211,0.7446289,-2,-2,-5,15,-23,-3,-8,-8
508.3711190223694,true,0.044433594,-1.0195312,0.41064453,-0.72409815,0.48564133,-1.0195312,0.41064453,-7,-28,-7,9,15,-5,-17,3
508.3735730648041,true,0.028808594,-0.81884766,0.40576172,-0.728706,0.48016837,-0.81884766,0.40576172,-3,-54,-7,3,-1,-8,0,-11
508.4034090042114,true,0.076660156,-0.9238281,0.41845703,-0.7289575,0.48114976,-0.9238281,0.41845703,-7,-17,-17,-4,-14,-1,1,10
508.4310690164566,true,0.001953125,-1.0795898,0.37451172,-0.7280327,0.4838903,-1.0795898,0.37451172,-4,25,14,3,-4,-3,-11,-6
508.4335570335388,true,-0.079589844,-1.0786133,0.40283203,-0.72836906,0.48478594,-1.0786133,0.40283203,1,16,6,-3,-1,-7,-1,-1
508.4623260498047,true,-0.109375,-1.0209961,0.43652344,-0.72980773,0.48371047,-1.0209961,0.43652344,6,-10,-3,0,10,-5,0,3
508.4911810159683,true,-0.08886719,-0.96777344,0.41845703,-0.73085475,0.48280114,-0.96777344,0.41845703,0,16,-7,-5,-14,-3,-1,1
508.49358797073364,true,-0.072265625,-0.99658203,0.42626953,-0.7309362,0.48283535,-0.99658203,0.42626953,8,2,-14,4,-20,2,-1,-7
508.5224690437317,true,-0.09423828,-1.0224609,0.4272461,-0.7303491,0.48327798,-1.0224609,0.4272461,-9,7,6,4,-10,0,0,-2
508.5517510175705,true,-0.09375,-1.0307617,0.4736328,-0.73014337,0.48338506,-1.0307617,0.4736328,5,-10,-4,-7,-5,-1,-3,1
508.5553079843521,true,-0.055664062,-1.0097656,0.4560547,-0.73005027,0.48309907,-1.0097656,0.4560547,2,2,2,6,10,3,-2,3
508.5827569961548,true,-0.08154297,-1.003418,0.45117188,-0.7295021,0.48334396,-1.003418,0.45117188,-2,1,0,8,19,4,2,3
508.61185705661774,true,-0.08203125,-1.0268555,0.4580078,-0.7284297,0.48441947,-1.0268555,0.4580078,0,-4,1,-10,6,-2,-1,2
508.6141160726547,true,-0.115234375,-1.0239258,0.46142578,-0.72730714,0.48554283,-1.0239258,0.46142578,-6,8,7,-2,-3,-1,-1,1
508.64270401000977,true,-0.115234375,-1.0478516,0.484375,-0.72600114,0.48717454,-1.0478516,0.484375,-5,-4,-3,-3,3,-6,-2,-4
508.67130506038666,true,-0.076171875,-1.0385742,0.4892578,-0.724236,0.48925298,-1.0385742,0.4892578,-1,0,-1,2,8,0,-3,1
508.7013009786606,true,-0.08105469,-1.0498047,0.46826172,-0.7219259,0.49206683,-1.0498047,0.46826172,0,-2,-3,2,0,1,0,3
508.70448195934296,true,-0.122558594,-1.0551758,0.46289062,-0.7197739,0.4948636,-1.0551758,0.46289062,0,1,2,-1,-6,-4,1,1
508.73156201839447,false,-0.125,-1.0932617,0.44384766,-0.71690637,0.49870953,-1.0932617,0.44384766,-3,-4,-4,-3,-6,-1,-2,-5
508.7611870765686,false,-0.1430664,-1.0620117,0.37060547,-0.7133121,0.5028646,-1.0620117,0.37060547,3,0,-1,1,0,1,1,0
508.7630270719528,false,-0.17089844,-1.0522461,0.33447266,-0.7086465,0.5075886,-1.0522461,0.33447266,-2,0,1,1,-6,1,-2,0
508.7912930250168,false,-0.20703125,-1.0571289,0.35302734,-0.70415074,0.5117712,-1.0571289,0.35302734,-1,-3,-3,3,15,1,-3,-1
508.8215789794922,false,-0.20458984,-0.97753906,0.3173828,-0.70062447,0.5144057,-0.97753906,0.3173828,1,6,-2,2,3,-2,2,2
508.82349705696106,false,-0.20166016,-0.8955078,0.29052734,-0.6968453,0.5164846,-0.8955078,0.29052734,-1,-2,-1,-3,-12,-4,-2,0
508.8513779640198,false,-0.18310547,-0.8417969,0.25,-0.69244486,0.5185554,-0.8417969,0.25,2,2,-2,0,-1,-7,-6,-2
508.88158106803894,false,-0.12890625,-0.84472656,0.25878906,-0.68763274,0.5203938,-0.84472656,0.25878906,-5,-6,-6,5,3,0,1,-4
508.8832609653473,false,0.018554688,-0.8540039,0.28564453,-0.6831776,0.52100456,-0.8540039,0.28564453,2,1,-1,0,4,10,4,-1
508.91139698028564,false,0.103515625,-0.8574219,0.32666016,-0.6783245,0.52037024,-0.8574219,0.32666016,1,3,3,3,7,3,-3,-2
508.94122302532196,false,0.063964844,-0.7939453,0.37109375,-0.6730939,0.5186754,-0.7939453,0.37109375,-1,-2,-3,-4,-2,1,-3,-5
508.94331407546997,false,0.04248047,-0.79541016,0.40625,-0.66839266,0.5155614,-0.79541016,0.40625,-1,-8,-4,-4,-3,-4,-2,-1
508.97242307662964,false,0.103027344,-0.8071289,0.45410156,-0.6647339,0.51049805,-0.8071289,0.45410156,0,-4,-1,-2,0,3,6,2
509.00194907188416,false,0.23388672,-0.82714844,0.48779297,-0.66228807,0.50292635,-0.82714844,0.48779297,-3,-4,-2,-3,-3,-5,-3,1
509.00501799583435,false,0.20117188,-0.8076172,0.5029297,-0.66002584,0.4930968,-0.8076172,0.5029297,-1,0,1,3,-5,2,-1,1
509.0307550430298,false,0.14111328,-0.8208008,0.54589844,-0.6580842,0.4819359,-0.8208008,0.54589844,0,0,2,-2,-1,-2,7,-3
509.06089198589325,false,0.08935547,-0.85302734,0.58691406,-0.6569308,0.46851256,-0.85302734,0.58691406,-1,1,5,-5,3,2,-7,2
509.0627490282059,false,0.10986328,-0.9169922,0.62353516,-0.6577119,0.45196334,-0.9169922,0.62353516,0,0,0,-6,-5,0,6,-1
509.0910840034485,false,0.12890625,-0.9868164,0.66259766,-0.65971726,0.43303674,-0.9868164,0.66259766,0,0,-2,2,1,-1,-25,-4
509.12182796001434,false,0.1508789,-0.9716797,0.67041016,-0.66199064,0.4125997,-0.9716797,0.67041016,0,-1,-2,3,-2,-3,13,1
509.1247400045395,false,0.14990234,-0.9448242,0.64990234,-0.66285443,0.39282975,-0.9448242,0.64990234,-1,-2,0,0,-2,3,-7,-4
509.1514049768448,false,0.110839844,-0.9838867,0.63378906,-0.6615062,0.37579754,-0.9838867,0.63378906,0,0,0,0,-3,2,-5,-3
509.1813200712204,false,-0.0078125,-1.0258789,0.72265625,-0.6582719,0.3626752,-1.0258789,0.72265625,-1,1,-2,2,-3,-1,-7,-1
509.18288004398346,false,-0.045898438,-1.1201172,0.7211914,-0.6562525,0.34979382,-1.1201172,0.7211914,-1,1,0,-4,1,1,2,-1
