time,gesture,ax,ay,az,qw,qx,qy,qz,e0,e1,e2,e3,e4,e5,e6,e7
6.303846001625061,false,-0.53125,0.33642578,0.6118164,0.24584785,0.14910781,0.33642578,0.6118164,3,2,-18,-24,34,-8,-3,1
6.306591033935547,false,0.034179688,0.3383789,0.8774414,0.32097942,0.16503677,0.3383789,0.8774414,1,3,0,3,1,-1,1,1
6.362815976142883,false,0.10498047,0.30126953,0.94677734,0.33245167,0.1737025,0.30126953,0.94677734,-1,1,3,2,1,-1,-3,-3
6.364779949188232,false,0.14550781,0.17822266,0.9638672,0.34355924,0.18352862,0.17822266,0.9638672,0,1,-1,-3,4,9,1,0
6.393409013748169,false,0.16015625,0.4477539,0.90771484,0.35942206,0.21355371,0.4477539,0.90771484,0,0,4,4,-4,5,-1,-4
6.395100951194763,false,0.026367188,0.45751953,0.984375,0.3693162,0.22997577,0.45751953,0.984375,2,5,4,4,15,16,24,-8
6.422803997993469,false,-0.17919922,0.3305664,1.1108398,0.3812106,0.24327657,0.3305664,1.1108398,-3,-4,-9,-10,-35,-19,-15,-1
6.482648968696594,false,-0.2998047,0.19042969,1.1606445,0.39201728,0.25334948,0.19042969,1.1606445,2,2,7,2,35,4,-17,4
6.484673023223877,false,-0.2524414,0.04638672,1.0698242,0.40142474,0.26366958,0.04638672,1.0698242,0,0,-6,9,9,2,-23,-2
6.512714982032776,false,-0.39257812,0.0043945312,0.8178711,0.41108173,0.29761463,0.0043945312,0.8178711,-6,-8,-3,-1,-5,5,4,-1
6.514863014221191,false,-0.55908203,0.30419922,0.7832031,0.41131097,0.32140726,0.30419922,0.7832031,-2,-3,1,0,0,0,23,23
6.543164014816284,false,-0.71533203,0.5708008,0.7368164,0.41326118,0.34209552,0.5708008,0.7368164,-3,-1,0,-3,-15,-4,-11,-4
6.602548003196716,false,-0.59375,0.62597656,0.91845703,0.42279148,0.35272297,0.62597656,0.91845703,1,2,-1,-1,2,9,3,-10
6.60479199886322,false,-1.0380859,1.1230469,1.7446289,0.43816265,0.34893104,1.1230469,1.7446289,9,0,0,0,-5,0,6,4
6.6326669454574585,false,-0.60253906,-0.7915039,1.4086914,0.46277434,0.3090859,-0.7915039,1.4086914,-5,-3,2,0,2,-7,-38,-14
6.63460099697113,false,-0.5263672,-0.55615234,0.98095703,0.45281157,0.30993086,-0.55615234,0.98095703,-2,-4,-2,-2,-2,-1,17,2
6.662678956985474,false,-0.5,0.030761719,0.5810547,0.43609872,0.32159612,0.030761719,0.5810547,-4,3,-2,1,-1,1,1,3
6.693153977394104,false,-0.5703125,0.50927734,0.44970703,0.41991052,0.33519602,0.50927734,0.44970703,-3,0,-3,-2,-2,-7,-2,1
6.694880962371826,false,-0.546875,0.70703125,0.43359375,0.4099079,0.34380752,0.70703125,0.43359375,1,0,-1,-2,-3,-3,1,2
6.723143935203552,false,-0.5058594,0.64208984,0.5019531,0.40722063,0.34740704,0.64208984,0.5019531,1,-1,-2,-1,-3,-2,12,2
6.7526479959487915,false,-0.52685547,0.46777344,0.6152344,0.40864056,0.3466273,0.46777344,0.6152344,-1,1,-1,0,-3,-13,-1,0
6.754649996757507,false,-0.5517578,0.39257812,0.7597656,0.41088587,0.34496835,0.39257812,0.7597656,-1,0,-1,-1,-2,-6,-6,0
6.81321394443512,false,-0.5498047,0.35595703,0.8222656,0.4121645,0.34350094,0.35595703,0.8222656,1,-1,0,0,-1,6,13,3
6.8152430057525635,false,-0.5151367,0.35888672,0.88134766,0.41235223,0.34203994,0.35888672,0.88134766,1,-1,-1,0,-2,6,6,1
6.842734932899475,false,-0.42919922,0.41015625,0.8276367,0.40936714,0.339237,0.41015625,0.8276367,-1,0,0,-1,2,7,12,-1
6.872702956199646,false,-0.4033203,0.41503906,0.7895508,0.40735272,0.33752778,0.41503906,0.7895508,-1,-2,0,-1,0,-2,-6,-1
6.875239014625549,false,-0.39013672,0.38427734,0.7529297,0.4053277,0.33568776,0.38427734,0.7529297,-2,1,-1,-1,1,3,6,2
6.932788014411926,false,-0.39111328,0.37109375,0.7573242,0.40282324,0.3342212,0.37109375,0.7573242,0,0,-1,-2,-3,-6,-8,-3
6.934877991676331,false,-0.4111328,0.3984375,0.78222656,0.39989915,0.33349344,0.3984375,0.78222656,0,-2,0,-1,-2,0,0,1
6.962638974189758,false,-0.47607422,0.43798828,0.80371094,0.3949636,0.3331952,0.43798828,0.80371094,0,0,-1,-2,-1,-1,3,-3
6.992807984352112,false,-0.49072266,0.42236328,0.8051758,0.39367193,0.33257648,0.42236328,0.8051758,0,-2,0,-1,1,2,5,0
6.994908928871155,false,-0.49267578,0.3798828,0.8017578,0.39312246,0.33153877,0.3798828,0.8017578,-1,-1,-1,1,0,-1,8,1
7.082855939865112,false,-0.49023438,0.34472656,0.7885742,0.39288643,0.33056906,0.34472656,0.7885742,0,-1,-1,1,2,0,0,-1
7.0849679708480835,false,-0.49365234,0.3310547,0.78027344,0.3927098,0.33002517,0.3310547,0.78027344,-1,0,-1,-1,-1,2,3,2
7.086619973182678,false,-0.5029297,0.34228516,0.78808594,0.3925175,0.3299564,0.34228516,0.78808594,0,-1,-2,-1,0,-1,2,0
7.14383602142334,false,-0.5058594,0.3701172,0.7910156,0.39275473,0.32970646,0.3701172,0.7910156,-1,-2,-1,-1,0,1,3,0
7.145532965660095,false,-0.49853516,0.37451172,0.77978516,0.3929342,0.32958135,0.37451172,0.77978516,-2,-1,0,-2,-1,0,1,1
7.173324942588806,false,-0.49072266,0.4033203,0.75,0.39300334,0.33044264,0.4033203,0.75,-1,-1,0,-1,1,0,2,0
7.232669949531555,false,-0.48632812,0.41015625,0.76123047,0.3931892,0.33087218,0.41015625,0.76123047,-1,0,0,-2,-2,0,-2,-1
7.234210014343262,false,-0.48095703,0.4091797,0.76904297,0.39341837,0.3311037,0.4091797,0.76904297,-1,-2,0,-2,-1,-1,0,0
7.262666940689087,false,-0.48486328,0.40625,0.7729492,0.3936061,0.33116865,0.40625,0.7729492,1,1,-1,1,-1,-1,1,-1
7.264295935630798,false,-0.47998047,0.4169922,0.7885742,0.39372858,0.33123004,0.4169922,0.7885742,1,0,-2,1,-5,-2,-3,0
7.266049027442932,false,-0.50927734,0.41210938,0.81884766,0.39365938,0.33189455,0.41210938,0.81884766,-2,-1,-3,-4,-5,-1,-2,0
7.2951459884643555,false,-0.54785156,0.34033203,0.8725586,0.3928755,0.3323298,0.34033203,0.8725586,-2,-2,-1,-6,-32,-9,-5,-3
7.323241949081421,false,-0.5673828,0.2685547,0.90185547,0.39001507,0.33282506,0.2685547,0.90185547,1,-3,-15,-18,-19,2,1,0
7.383404970169067,false,-0.58691406,0.3305664,0.8984375,0.38410297,0.33515167,0.3305664,0.8984375,-2,-21,-17,10,-2,-5,0,0
7.3856589794158936,false,-0.70166016,0.4814453,0.9506836,0.37297958,0.339777,0.4814453,0.9506836,5,39,-10,0,29,-3,-1,1
7.413938045501709,false,-0.6586914,1.2270508,0.7783203,0.34631282,0.3280023,1.2270508,0.7783203,0,-13,-10,-25,34,2,1,1
7.47327995300293,false,-0.48876953,1.1518555,0.7270508,0.34875625,0.30896118,1.1518555,0.7270508,-6,15,19,38,-32,-1,-1,-2
7.476158022880554,false,-0.2915039,0.98583984,0.7807617,0.3546039,0.28203523,0.98583984,0.7807617,-4,12,8,2,17,6,-4,0
7.503381013870239,false,0.0625,0.6635742,0.5473633,0.3692637,0.2197882,0.6635742,0.5473633,-4,-10,1,5,-6,-1,0,-1
7.50623893737793,false,0.20898438,0.60546875,0.51123047,0.3783504,0.1904264,0.60546875,0.51123047,-2,-9,-5,-16,-36,-1,9,-3
7.533967971801758,false,0.119628906,0.57714844,0.6152344,0.3882423,0.16436669,0.57714844,0.6152344,1,-2,7,-1,36,-6,2,2
7.594269037246704,false,0.059570312,0.55859375,0.54833984,0.39855117,0.14196478,0.55859375,0.54833984,-14,-58,-15,0,34,18,4,-2
7.596966028213501,false,0.14550781,0.57421875,0.43945312,0.40928838,0.12438559,0.57421875,0.43945312,-2,2,12,-1,2,-1,-7,-2
7.623394966125488,false,0.3930664,0.8486328,0.0703125,0.4329281,0.10016002,0.8486328,0.0703125,18,27,-11,-20,-86,-10,-2,1
7.625914931297302,false,0.33447266,0.8652344,0.087402344,0.45188534,0.08904655,0.8652344,0.087402344,-13,-10,5,-13,-14,-13,3,-1
7.654068946838379,false,0.4975586,0.71240234,0.1430664,0.47410935,0.076536186,0.71240234,0.1430664,-11,-5,7,21,30,11,3,0
7.713304042816162,false,0.47460938,0.56933594,0.27197266,0.49889067,0.06829687,0.56933594,0.27197266,-4,-6,-10,-18,-10,0,-4,0
7.715796947479248,false,0.3881836,0.5258789,0.3647461,0.52702373,0.06554991,0.5258789,0.3647461,-7,-8,-5,16,51,28,11,-33
7.74297297000885,false,0.17626953,0.4033203,0.55615234,0.5844221,0.076417394,0.4033203,0.55615234,1,-3,-6,-11,-4,0,0,21
7.745541930198669,false,0.095703125,0.3125,0.65625,0.61148185,0.090327695,0.3125,0.65625,-2,1,-1,-3,-8,-4,-21,-12
7.773420929908752,false,-0.10986328,1.0258789,1.9838867,0.63566524,0.10809056,1.0258789,1.9838867,-1,6,3,-7,-3,-9,-4,5
7.803015947341919,false,-2.0810547,0.32958984,2.5771484,0.65178853,0.09155191,0.32958984,2.5771484,-31,-3,21,-38,-67,6,2,-10
7.80545699596405,false,-0.04296875,-0.42138672,2.0078125,0.6433615,0.071959324,-0.42138672,2.0078125,33,-7,-5,24,6,-12,-3,20
7.833624005317688,false,-0.19726562,0.66259766,0.7470703,0.6314659,0.06671102,0.66259766,0.7470703,9,4,-4,-5,-25,-16,-2,1
7.862995028495789,false,0.625,0.7392578,0.043945312,0.6284871,0.04870668,0.7392578,0.043945312,-21,4,5,13,34,4,6,-1
7.865489959716797,false,0.8051758,0.4165039,0.2397461,0.6300101,0.025818087,0.4165039,0.2397461,1,-4,-4,-2,48,9,1,-3
7.9229079484939575,false,0.067871094,0.13964844,0.77734375,0.63206905,0.010070626,0.13964844,0.77734375,5,21,-3,11,10,-9,-52,-13
7.925632953643799,false,0.19433594,0.071777344,0.70996094,0.6298521,-0.003417802,0.071777344,0.70996094,-11,-28,-13,-6,6,-11,-16,15
7.953398942947388,false,0.65771484,0.31201172,0.15039062,0.6177746,-0.015929576,0.31201172,0.15039062,-8,-10,14,-1,9,-3,12,14
7.982890963554382,false,0.84716797,0.21875,-0.009277344,0.61785364,-0.01605211,0.21875,-0.009277344,-12,-28,-19,-20,-13,0,4,-5
7.985919952392578,false,0.6875,0.04736328,0.1586914,0.6246363,-0.0010986372,0.04736328,0.1586914,-10,-16,-8,15,14,20,-73,-27
8.043646931648254,false,0.3930664,0.17480469,0.48486328,0.63304263,0.025451096,0.17480469,0.48486328,5,17,7,8,-2,11,84,-25
8.045042991638184,false,0.21728516,0.63427734,0.9379883,0.64115965,0.061644096,0.63427734,0.9379883,7,28,15,-4,7,-6,10,32
8.073503017425537,false,-1.065918,0.2524414,1.3349609,0.6479448,0.053954713,0.2524414,1.3349609,19,-128,16,-82,-33,82,-5,11
8.10299301147461,false,0.8613281,0.28759766,0.8520508,0.641825,0.0432115,0.28759766,0.8520508,-5,-108,-13,25,-21,7,18,9
8.105476975440979,false,0.8881836,0.53515625,0.35498047,0.6437482,0.03863588,0.53515625,0.35498047,10,127,5,29,-28,-32,-8,-5
8.192685961723328,false,0.34375,0.57958984,0.47802734,0.6432959,0.024657642,0.57958984,0.47802734,21,26,1,10,12,-26,-21,13
8.222870945930481,false,0.03564453,0.3046875,0.8125,0.64293414,0.007507205,0.3046875,0.8125,-17,-27,-3,-6,33,-17,-30,-7
8.254024028778076,false,0.5078125,0.037109375,0.2705078,0.6323137,-0.011291317,0.037109375,0.2705078,-13,-9,-1,-7,-12,9,-31,-26
8.283141016960144,false,0.48632812,0.15625,0.37109375,0.6394157,0.016296675,0.15625,0.37109375,0,4,0,-5,-11,5,-2,3
8.285594940185547,false,0.29785156,0.4501953,0.5727539,0.6462324,0.052672707,0.4501953,0.5727539,-2,-23,-11,6,2,7,31,24
8.372516989707947,false,-1.7099609,2.7231445,4.401367,0.6558318,0.059265956,2.7231445,4.401367,-18,103,3,-1,14,-105,12,6
8.374282002449036,false,-0.71240234,0.6621094,0.92529297,0.6483033,0.027648408,0.6621094,0.92529297,34,-128,0,3,26,127,4,34
8.402822971343994,false,0.4296875,0.49658203,0.5683594,0.6525215,0.0038451832,0.49658203,0.5683594,-3,-6,8,22,24,1,11,4
8.405578970909119,false,-0.019042969,0.44580078,0.7832031,0.65323776,-0.0042723203,0.44580078,0.7832031,-5,-20,0,5,-20,31,35,-14
8.433655977249146,false,0.24707031,0.21240234,0.6123047,0.65083236,-0.022705585,0.21240234,0.6123047,-2,-2,0,-2,-5,-18,71,34
8.463045001029968,false,0.5078125,-0.0034179688,0.43847656,0.6456581,-0.041257665,-0.0034179688,0.43847656,2,1,0,-12,-24,-6,-44,-17
8.465535998344421,false,0.5175781,-0.092285156,0.20458984,0.6416545,-0.050719574,-0.092285156,0.20458984,2,0,-13,0,14,19,0,7
8.493633031845093,false,0.56591797,-0.14257812,0.1508789,0.6414936,-0.05114859,-0.14257812,0.1508789,-12,-22,8,18,17,19,60,25
8.523026943206787,false,0.48828125,0.017089844,0.3774414,0.64379793,-0.04058832,0.017089844,0.3774414,4,1,-8,-27,-23,35,41,-11
8.525506019592285,false,0.4165039,0.08251953,0.35107422,0.6463533,-0.020324424,0.08251953,0.35107422,-14,-17,-2,-16,-12,-23,-27,-6
8.553696990013123,false,0.38183594,0.2685547,0.5756836,0.64953405,0.0054931464,0.2685547,0.5756836,1,2,-4,2,-13,-8,-48,-16
8.58292293548584,false,-0.26513672,0.58984375,3.3632812,0.6528828,0.027526421,0.58984375,3.3632812,0,11,15,-1,-15,-4,-9,0
8.612949013710022,false,-1.4033203,0.83496094,1.6811523,0.65881276,0.022277808,0.83496094,1.6811523,26,-41,11,1,18,99,-28,-22
8.615527033805847,false,1.1030273,0.5053711,1.8222656,0.65807855,-0.0019531175,0.5053711,1.8222656,-4,40,1,20,9,-51,-10,1
8.642953991889954,false,0.34375,0.0390625,0.66552734,0.6580157,-0.0051269196,0.0390625,0.66552734,-8,15,-8,2,1,-22,-21,-3
8.645447015762329,false,0.6738281,0.16015625,0.72509766,0.6601567,-0.014831553,0.16015625,0.72509766,1,-13,-15,-14,8,11,-13,-2
8.673560976982117,false,0.087402344,0.4975586,0.63183594,0.6609977,-0.010009567,0.4975586,0.63183594,-6,-18,1,-2,-8,-18,-23,4
8.703050017356873,false,-0.083496094,0.5410156,0.7128906,0.66114753,-0.00946066,0.5410156,0.7128906,-2,6,-3,2,-4,-41,-12,1
8.705577969551086,false,0.29736328,0.21240234,0.61328125,0.65888906,-0.024658747,0.21240234,0.61328125,-7,0,-6,-2,-15,-3,10,-1
8.733534932136536,false,0.39111328,0.08984375,0.47705078,0.653146,-0.037537128,0.08984375,0.47705078,-12,-20,-1,-6,-14,11,64,11
8.762953996658325,false,0.4375,0.010253906,0.21484375,0.64818245,-0.04510422,0.010253906,0.21484375,18,24,5,21,6,-24,-63,-13
8.79253101348877,false,0.47314453,-0.10595703,0.24316406,0.64672565,-0.04437236,-0.10595703,0.24316406,8,32,-3,-4,-8,-34,-55,-47
8.794257998466492,false,0.3798828,0.061035156,0.4038086,0.6463457,-0.032591935,0.061035156,0.4038086,-9,-14,4,13,19,43,78,35
8.822867035865784,false,0.375,0.095214844,0.35498047,0.64758414,-0.012329124,0.095214844,0.35498047,2,7,-1,-10,7,3,6,-3
8.825148940086365,false,0.3720703,0.2939453,0.5341797,0.6495164,0.014464892,0.2939453,0.5341797,-7,-13,-1,-9,-8,-8,-10,-3
8.85368299484253,false,-0.2602539,1.0175781,3.724121,0.6511653,0.0325308,1.0175781,3.724121,-8,-25,-15,-7,-10,-66,-10,-1
8.883036971092224,false,-1.2006836,1.3305664,1.7182617,0.65532994,0.020019393,1.3305664,1.7182617,8,-7,3,1,-10,62,20,15
8.885396957397461,false,0.77490234,0.1743164,1.8613281,0.65715027,-0.0039061592,0.1743164,1.8613281,0,32,16,-36,-12,18,-14,-2
8.913594007492065,false,0.35839844,0.12158203,0.859375,0.6549534,-0.006408546,0.12158203,0.859375,-3,-17,-7,25,41,-45,13,0
8.942911982536316,false,0.67285156,0.18261719,0.60009766,0.6565074,-0.013977332,0.18261719,0.60009766,-3,4,-1,0,15,14,-34,-7
8.945482969284058,false,0.13427734,0.49365234,0.57177734,0.65850896,-0.009399423,0.49365234,0.57177734,-3,-2,-1,3,3,3,16,1
8.97359299659729,false,-0.0078125,0.58203125,0.7182617,0.6596079,-0.012817401,0.58203125,0.7182617,-8,-7,0,0,-23,-15,-10,-5
9.002980947494507,false,0.27734375,0.3310547,0.6513672,0.6579386,-0.028807702,0.3310547,0.6513672,1,-3,2,3,7,4,61,12
9.00543999671936,false,0.3359375,-0.016113281,0.5727539,0.6538167,-0.0465704,-0.016113281,0.5727539,-8,-10,-5,-1,-24,-19,-39,2
9.033568024635315,false,0.36914062,-0.10839844,0.37695312,0.65057135,-0.05535868,-0.10839844,0.37695312,-7,-12,3,-5,12,-8,-28,-13
9.063079953193665,false,0.40722656,-0.14501953,0.23095703,0.64897496,-0.053526856,-0.14501953,0.23095703,15,25,3,10,7,-8,-44,-24
9.065564036369324,false,0.36621094,-0.10205078,0.35888672,0.6485494,-0.04162532,-0.10205078,0.35888672,14,32,9,-1,-2,12,47,5
9.093655943870544,false,0.26464844,0.07421875,0.4272461,0.6468288,-0.020934353,0.07421875,0.4272461,-5,-12,-3,-10,-17,-1,-10,13
9.122949957847595,false,0.20654297,0.28759766,0.5786133,0.64483094,0.0036010437,0.28759766,0.5786133,-3,-7,-1,-3,-12,-10,-1,2
9.12537693977356,false,-0.12695312,0.5214844,1.9799805,0.6420668,0.02551178,0.5214844,1.9799805,1,12,3,-3,5,-12,-3,-6
9.153576016426086,false,-0.9794922,1.3647461,2.194336,0.64843595,0.02935784,1.3647461,2.194336,-8,-12,-4,15,17,100,-1,-1
9.182934999465942,false,0.61816406,0.26367188,1.7578125,0.64795053,0.008178728,0.26367188,1.7578125,9,-12,-6,11,17,7,11,12
9.185552954673767,false,0.21875,0.41748047,0.8959961,0.6446408,0.010864046,0.41748047,0.8959961,-2,-4,11,13,17,-80,0,-1
9.2136310338974,false,0.6699219,0.2939453,0.7314453,0.6468882,0.0014037577,0.2939453,0.7314453,3,25,15,-3,-22,28,14,3
9.243059992790222,false,0.08935547,0.42382812,0.7285156,0.6494141,0.0035400395,0.42382812,0.7285156,-3,-7,-16,-10,-22,-14,-1,-3
9.245419025421143,false,-0.07470703,0.6479492,0.8178711,0.64934164,0.0031127385,0.6479492,0.8178711,2,5,0,-4,7,-28,-33,-17
9.273551940917969,false,0.23730469,0.47021484,0.7519531,0.6490874,-0.012023529,0.47021484,0.7519531,-4,-4,-4,-18,-24,-2,23,-3
9.303059935569763,false,0.3100586,0.13476562,0.6503906,0.6473981,-0.02984611,0.13476562,0.6503906,7,5,-1,-5,-17,-20,-35,2
9.30564796924591,false,0.33984375,-0.029785156,0.54052734,0.6465193,-0.041258097,-0.029785156,0.54052734,-18,-25,-7,0,10,-8,-3,1
9.333631992340088,false,0.3017578,-0.0043945312,0.40478516,0.6470867,-0.042113736,-0.0043945312,0.40478516,-4,0,-7,6,49,7,21,-8
9.362954020500183,false,0.3251953,-0.041015625,0.20947266,0.64799243,-0.03619285,-0.041015625,0.20947266,-22,-29,-6,18,11,-20,-89,-34
9.365607976913452,false,0.27539062,0.001953125,0.26513672,0.6480012,-0.024047516,0.001953125,0.26513672,-10,-1,5,-7,-11,-24,-46,41
9.393859028816223,false,0.22949219,0.140625,0.31201172,0.64762175,-0.0062253713,0.140625,0.31201172,9,5,1,-4,-6,-5,21,14
9.422878980636597,false,0.2319336,0.114746094,0.3154297,0.64782107,0.015380714,0.114746094,0.3154297,7,8,-1,-3,-16,6,36,-1
9.425429940223694,false,0.19384766,0.013671875,0.5283203,0.64743966,0.040770143,0.013671875,0.5283203,0,-5,-1,-7,-12,32,116,9
9.453487038612366,false,-0.9213867,2.006836,2.4169922,0.65123326,0.053343754,2.006836,2.4169922,-16,-8,1,-14,-10,77,-5,-16
9.483045935630798,false,-0.091308594,0.09814453,1.8466797,0.6444551,0.04064846,0.09814453,1.8466797,17,0,-9,-2,-1,-49,-60,-21
9.485597968101501,false,-0.2578125,0.86035156,1.1572266,0.6404993,0.05194062,0.86035156,1.1572266,3,-4,0,-2,0,4,30,10
9.513569951057434,false,0.36083984,0.17919922,0.8588867,0.6419745,0.044983383,0.17919922,0.8588867,2,8,-3,-5,-8,-21,-11,-2
9.543063998222351,false,0.25585938,0.13427734,0.60058594,0.6425211,0.046692185,0.13427734,0.60058594,-4,-1,-3,-19,-13,-12,-12,-7
9.54582393169403,false,-0.009765625,0.11816406,0.5805664,0.63890076,0.053709656,0.11816406,0.5805664,3,3,-1,5,1,11,2,6
9.573657035827637,false,-0.024902344,0.29345703,0.6738281,0.6328477,0.06341294,0.29345703,0.6738281,4,3,-4,3,-8,1,9,1
9.603101015090942,false,-0.14746094,0.33740234,0.7495117,0.62517536,0.075926796,0.33740234,0.7495117,0,1,4,12,3,-19,-1,-1
9.605507016181946,false,-0.087890625,0.2915039,0.78759766,0.6181124,0.0911879,0.2915039,0.78759766,-1,-2,-2,-1,9,-4,-4,-1
9.633500933647156,false,-0.13476562,0.40722656,0.74072266,0.6108613,0.115055315,0.40722656,0.74072266,-6,-5,18,15,1,-3,-7,-5
9.66301703453064,false,-0.16357422,0.55126953,0.7631836,0.6031575,0.14306833,0.55126953,0.7631836,4,4,-1,-6,-3,-3,6,4
9.66541302204132,false,-0.15039062,0.77978516,0.86865234,0.59430057,0.17376746,0.77978516,0.86865234,0,2,3,1,-1,1,5,0
9.693482041358948,false,-0.07080078,0.9267578,0.9091797,0.58421403,0.20073965,0.9267578,0.9091797,-1,-2,-4,-4,7,1,1,-3
9.722883939743042,false,0.08154297,0.8178711,0.8979492,0.5739122,0.21978708,0.8178711,0.8979492,6,3,4,-19,-13,5,-1,0
9.725387930870056,false,0.17333984,0.6586914,0.85839844,0.56188035,0.23418802,0.6586914,0.85839844,1,0,-4,2,15,-5,16,4
9.753512024879456,false,0.15332031,0.54296875,0.80371094,0.54656804,0.24664228,0.54296875,0.80371094,-4,-2,-3,7,7,-3,-6,0
9.782940030097961,false,0.17871094,0.4814453,0.6459961,0.527719,0.2586104,0.4814453,0.6459961,0,0,1,17,27,-6,-10,-4
9.785470962524414,false,0.100097656,0.49902344,0.57666016,0.50512713,0.27288827,0.49902344,0.57666016,0,0,-8,-50,-13,0,-7,-9
9.813621997833252,false,0.060058594,0.85498047,0.30664062,0.4788734,0.29113257,0.85498047,0.30664062,-3,-14,-7,-4,27,16,38,6
9.843134045600891,false,0.09716797,1.2983398,0.04638672,0.4576353,0.3080402,1.2983398,0.04638672,-3,10,16,19,-61,-22,11,11
9.84564995765686,false,0.24902344,1.746582,-0.1850586,0.44743463,0.31969208,1.746582,-0.1850586,-2,18,-7,0,13,-45,-26,-13
9.873612999916077,false,0.20703125,1.9077148,-0.09423828,0.44895887,0.3242074,1.9077148,-0.09423828,1,-27,-6,34,-58,33,13,3
9.902902960777283,false,0.140625,1.7382812,0.091308594,0.4627083,0.3198858,1.7382812,0.091308594,-1,1,-10,-13,-2,22,-2,5
9.905508041381836,false,0.0107421875,1.4428711,0.23632812,0.4826746,0.30994204,1.4428711,0.23632812,-2,-15,-21,-31,-7,17,-22,-9
9.933688044548035,false,0.034179688,1.1674805,0.29003906,0.50268,0.3005948,1.1674805,0.29003906,-2,9,8,20,29,-10,-14,-4
9.962998986244202,false,0.23291016,1.1625977,0.23535156,0.52258176,0.29168633,1.1625977,0.23535156,1,1,3,-10,-16,-15,-7,-6
9.965580940246582,false,0.1459961,0.42871094,-0.8178711,0.5432008,0.27312624,0.42871094,-0.8178711,1,7,0,3,0,92,-7,6
9.994099020957947,false,-0.71777344,-0.7788086,0.72998047,0.5510261,0.2521976,-0.7788086,0.72998047,49,-2,1,-1,8,-39,3,-4
10.022894024848938,false,-1.1259766,0.17041016,0.51416016,0.5465557,0.25243488,0.17041016,0.51416016,-128,-23,3,5,-15,-21,5,22
10.025470972061157,false,-0.08154297,0.4501953,0.67529297,0.54570496,0.25194836,0.4501953,0.67529297,29,9,3,-5,41,-15,-8,6
10.053668022155762,false,0.5527344,0.8588867,0.19921875,0.5300027,0.2702501,0.8588867,0.19921875,20,18,-2,-10,0,-20,0,-4
10.082963943481445,false,0.29003906,1.5083008,0.030761719,0.51977235,0.28246906,1.5083008,0.030761719,-1,-1,4,12,35,-6,-22,-13
10.085664987564087,false,0.31396484,1.1708984,0.095214844,0.5159918,0.27783236,1.1708984,0.095214844,5,-19,-6,-28,-35,-4,13,-6
10.113517999649048,false,0.25585938,0.7363281,0.2578125,0.51384693,0.26812327,0.7363281,0.2578125,7,1,6,-5,-4,-5,5,-4
10.143072009086609,false,0.16455078,0.94921875,0.37597656,0.508376,0.26538825,0.94921875,0.37597656,-4,-5,2,6,38,3,28,-5
10.171888947486877,false,0.24853516,1.3164062,0.3408203,0.5022024,0.26910678,1.3164062,0.3408203,12,15,0,0,-39,-43,-23,3
10.174268960952759,false,0.37353516,1.5029297,0.22949219,0.5003592,0.272274,1.5029297,0.22949219,1,-13,-25,12,-15,28,-1,18
10.202926993370056,false,0.42236328,1.5366211,0.0703125,0.5054375,0.27337936,1.5366211,0.0703125,9,26,3,2,-6,-1,15,3
10.205590963363647,false,0.48046875,1.4077148,0.0625,0.5202661,0.2695325,1.4077148,0.0625,-3,-11,6,9,9,1,-20,-5
10.23354697227478,false,0.4736328,1.0849609,0.2055664,0.5432091,0.26104552,1.0849609,0.2055664,-6,1,-2,-5,0,-1,1,-9
10.262977957725525,false,0.2915039,-0.5566406,0.5283203,0.5715231,0.2421832,-0.5566406,0.5283203,-17,-17,-3,-3,6,98,0,-4
10.291980028152466,false,-1.4794922,0.43408203,0.92578125,0.57151943,0.246393,0.43408203,0.92578125,92,72,1,-2,8,-68,-1,-4
10.29417097568512,false,-0.73339844,0.39892578,1.1323242,0.56908214,0.24700509,0.39892578,1.1323242,-17,-11,-3,1,40,-20,-7,-1
10.322932958602905,false,0.3857422,0.94873047,0.69921875,0.5611067,0.24866188,0.94873047,0.69921875,-17,-23,-8,-13,-11,-21,1,-4
10.352252960205078,false,0.41210938,1.171875,0.27539062,0.5442623,0.2636776,1.171875,0.27539062,-12,9,7,8,32,-16,1,0
10.354472041130066,false,0.05908203,1.5395508,0.09765625,0.53361905,0.2707462,1.5395508,0.09765625,-15,-5,4,4,4,32,-30,-11
10.382843971252441,false,0.23925781,1.0439453,0.19335938,0.52965456,0.26104316,1.0439453,0.19335938,2,-1,-4,-10,-31,-9,-6,3
10.41202700138092,false,0.3046875,0.7270508,0.3984375,0.5239183,0.2483485,0.7270508,0.3984375,-4,-23,-1,6,-19,19,20,17
10.414821028709412,false,0.31884766,0.96728516,0.34375,0.51475644,0.24352363,0.96728516,0.34375,-5,4,-1,1,35,-9,-13,-7
10.443307042121887,false,0.4736328,1.2495117,0.15820312,0.50717884,0.2446787,1.2495117,0.15820312,-17,-30,4,13,-20,8,22,8
10.471827983856201,false,0.5805664,1.3105469,0.048828125,0.505869,0.24609841,1.3105469,0.048828125,-13,-37,-9,-21,-17,-3,13,5
10.474408030509949,false,0.52197266,1.3041992,0.005859375,0.51141655,0.24847557,1.3041992,0.005859375,-5,28,13,1,6,1,-1,-5
10.50295603275299,false,0.4741211,1.3183594,0.029785156,0.5247614,0.24938066,1.3183594,0.029785156,0,-4,-1,6,-22,-6,-12,-11
10.531846046447754,false,0.5,1.1259766,0.15673828,0.5460834,0.24810874,1.1259766,0.15673828,7,13,2,6,1,-6,-1,-3
10.53459894657135,false,0.28320312,0.70458984,0.045410156,0.56941134,0.24561168,0.70458984,0.045410156,-5,-4,-5,-7,-9,50,2,1
10.562912940979004,false,-1.2060547,-0.31445312,1.3769531,0.58116317,0.23137887,-0.31445312,1.3769531,-84,-103,-1,2,-9,-49,3,-19
10.592007994651794,false,-1.2231445,0.31152344,0.7529297,0.57739514,0.22821146,0.31152344,0.7529297,-15,-43,-1,1,-24,-19,7,18
10.594290018081665,false,-0.09863281,0.59716797,0.90966797,0.5772092,0.2220458,0.59716797,0.90966797,14,59,-7,-5,23,7,-1,-1
10.623029947280884,false,0.46972656,0.30615234,0.7026367,0.56096315,0.230037,0.30615234,0.7026367,21,42,-7,-9,21,-1,0,0
10.651877999305725,false,0.03564453,1.503418,0.36572266,0.5419329,0.24408038,1.503418,0.36572266,12,-14,12,13,-86,-3,-3,-8
10.712787985801697,false,-0.005859375,1.9599609,-0.111816406,0.528972,0.2494414,1.9599609,-0.111816406,18,41,-8,4,74,12,4,-4
10.714877963066101,false,0.39257812,1.7133789,-0.009277344,0.52295494,0.24066426,1.7133789,-0.009277344,-7,7,-5,-4,-16,-5,-3,1
10.74198293685913,false,0.37353516,1.362793,0.26904297,0.5264976,0.21698342,1.362793,0.26904297,8,-11,-8,-4,34,14,5,9
10.742931962013245,false,0.35253906,0.8588867,0.3569336,0.54076296,0.16454819,0.8588867,0.3569336,1,10,2,-6,-30,-10,-15,-8
10.771854043006897,false,0.36572266,0.6225586,0.39111328,0.55063385,0.14110678,0.6225586,0.39111328,0,-1,8,7,18,-19,-32,1
10.7742919921875,false,0.41015625,0.53466797,0.36328125,0.561781,0.118899316,0.53466797,0.36328125,0,1,0,14,50,10,66,13
10.802909970283508,false,0.40820312,0.41259766,0.40283203,0.574591,0.09692484,0.41259766,0.40283203,0,11,5,-7,-26,8,62,-1
10.83184802532196,false,0.33935547,0.33007812,0.5024414,0.58641636,0.07543824,0.33007812,0.5024414,0,7,-4,-6,-13,-31,-78,-31
10.834321975708008,false,0.30615234,0.2602539,0.5234375,0.59564364,0.052734513,0.2602539,0.5234375,9,23,-1,-2,58,1,9,5
10.862283945083618,false,0.38085938,0.16210938,0.4638672,0.602174,0.031433165,0.16210938,0.4638672,-1,-9,-6,-13,-23,2,-21,-3
10.891793012619019,false,0.5107422,0.17578125,0.32421875,0.6066394,0.01812777,0.17578125,0.32421875,5,-10,-4,12,17,4,11,2
10.893788933753967,false,0.4951172,0.140625,0.32177734,0.6125846,0.013610278,0.140625,0.32177734,-9,-26,-9,4,14,2,7,-4
10.922224044799805,false,0.34521484,0.072753906,0.5180664,0.6207827,0.019958306,0.072753906,0.5180664,5,-3,10,12,7,-7,95,37
10.95186197757721,false,0.15917969,0.14404297,0.6542969,0.62939036,0.038634997,0.14404297,0.6542969,6,2,-8,-19,-13,3,-21,-12
10.953650951385498,false,-0.0087890625,0.2993164,0.97216797,0.6361753,0.06604064,0.2993164,0.97216797,-8,-1,8,2,-8,-8,-4,-2
11.012063980102539,false,-0.76904297,1.4697266,5.675293,0.6398352,0.09838924,1.4697266,5.675293,-8,-15,-10,-2,28,-7,-26,-17
11.013821959495544,false,-1.4775391,1.0776367,1.3466797,0.6401692,0.08044075,1.0776367,1.3466797,-14,8,9,-15,-87,93,3,-4
11.042295932769775,false,0.29638672,0.6411133,0.31835938,0.63262266,0.06201106,0.6411133,0.31835938,13,12,6,30,46,9,11,-8
11.071956038475037,false,0.39111328,0.40039062,0.50634766,0.6356611,0.03900024,0.40039062,0.50634766,-8,-15,4,-7,-31,-1,-11,11
11.073655009269714,false,0.029785156,0.26416016,0.8388672,0.6380887,0.022032522,0.26416016,0.8388672,13,-5,-17,-19,4,-7,7,0
11.102275013923645,false,0.107421875,0.083984375,0.6953125,0.6381743,0.0072020437,0.083984375,0.6953125,5,9,2,2,41,-30,-31,-6
11.131951928138733,false,0.40478516,0.13427734,0.5004883,0.6362812,-0.0031737767,0.13427734,0.5004883,7,3,-3,-8,-14,27,93,3
11.133675932884216,false,0.39892578,0.13720703,0.26757812,0.63334537,-0.007262995,0.13720703,0.26757812,37,46,-1,-15,3,11,31,13
11.16221797466278,false,0.34423828,0.076660156,0.2084961,0.6337156,-0.0055540907,0.076660156,0.2084961,-11,-1,-1,-11,-3,6,-39,-19
11.192010045051575,false,0.26220703,0.010253906,0.28857422,0.63648885,0.0028687166,0.010253906,0.28857422,5,-3,-5,6,1,-12,-32,13
11.19382095336914,false,0.2836914,0.08496094,0.40185547,0.63952386,0.02221671,0.08496094,0.40185547,-3,-7,2,10,5,4,11,6
11.222301006317139,false,0.12207031,0.20410156,0.3149414,0.6421452,0.045348722,0.20410156,0.3149414,-1,-8,-4,-7,-8,-16,-21,-7
11.251897931098938,false,-1.1240234,2.5009766,3.0947266,0.65207464,0.061093852,2.5009766,3.0947266,-22,-10,23,17,33,-122,-11,-12
11.253615021705627,false,-0.05517578,0.3623047,1.0913086,0.64788455,0.036559854,0.3623047,1.0913086,20,-25,-4,-18,-58,27,-27,8
11.282325029373169,false,0.44335938,0.2006836,1.1469727,0.6487631,0.034546986,0.2006836,1.1469727,-4,31,-16,-13,6,-19,-1,-10
11.311910033226013,false,0.32763672,0.39892578,0.7939453,0.6490195,0.03729085,0.39892578,0.7939453,-5,-34,-9,7,12,-17,2,-4
11.313630938529968,false,0.1899414,0.62597656,0.65234375,0.64714354,0.03485042,0.62597656,0.65234375,-3,-3,1,9,17,50,-8,-1
11.342322945594788,false,-0.040527344,0.59277344,0.76708984,0.6442834,0.02996809,0.59277344,0.76708984,-7,7,-4,20,2,26,63,-11
11.372614026069641,false,0.26220703,0.25439453,0.6972656,0.6435398,0.014526031,0.25439453,0.6972656,-4,-15,-1,-6,-13,-1,-16,4
11.37374198436737,false,0.3383789,0.055664062,0.62109375,0.64077485,0.00091547985,0.055664062,0.62109375,2,7,4,-4,-48,6,-9,4
11.402251958847046,false,0.28564453,0.22216797,0.43603516,0.6356647,-0.0043944176,0.22216797,0.43603516,6,22,16,3,5,1,-31,-7
11.431959986686707,false,0.24853516,0.08300781,0.29638672,0.63305444,-0.008300752,0.08300781,0.29638672,-8,-3,-5,-19,17,-18,18,-10
11.433601975440979,false,0.3388672,-0.041503906,0.2705078,0.63072664,-0.0065306514,-0.041503906,0.2705078,-4,-7,6,-16,-1,-2,-100,-25
11.462414979934692,false,0.34423828,-0.072265625,0.31835938,0.62945664,0.0041503976,-0.072265625,0.31835938,-1,-5,2,12,2,11,12,12
11.491878032684326,false,0.3388672,0.01953125,0.32421875,0.6282834,0.02709907,0.01953125,0.32421875,4,7,0,8,-3,-14,-24,0
11.493875980377197,false,0.23486328,0.08300781,0.14550781,0.6266865,0.056455493,0.08300781,0.14550781,-5,-5,-10,-6,-7,10,18,2
11.522274017333984,false,-0.5390625,2.2734375,3.9433594,0.6271917,0.07922293,2.2734375,3.9433594,-5,-4,-6,-1,0,-35,-4,1
11.551985025405884,false,-0.76171875,0.54248047,1.1064453,0.62578577,0.06469647,0.54248047,1.1064453,6,13,2,7,11,107,11,5
11.553687930107117,false,-0.04638672,0.38427734,1.8823242,0.6242649,0.0690915,0.38427734,1.8823242,-13,-21,-6,-1,-1,-47,-2,0
11.582276940345764,false,-0.18701172,0.31152344,1.0683594,0.6190179,0.07830802,0.31152344,1.0683594,6,-2,-2,-2,-3,-5,-2,1
11.61188793182373,false,0.1274414,0.09863281,0.9785156,0.61723226,0.076841235,0.09863281,0.9785156,-3,5,-10,-6,-1,-31,16,-3
11.613654017448425,false,-0.18310547,0.1796875,1.1000977,0.60716146,0.08166285,0.1796875,1.1000977,-2,0,-5,-5,-3,7,14,-14
11.642225980758667,false,-0.08105469,0.36132812,1.0332031,0.5980956,0.08178876,0.36132812,1.0332031,6,-3,-10,-31,-29,0,2,21
11.6720609664917,false,-0.15771484,0.43603516,0.9614258,0.587876,0.085019864,0.43603516,0.9614258,-7,-9,13,20,6,-11,-3,-10
11.733281016349792,false,-0.20605469,0.6850586,0.7783203,0.5746344,0.092466384,0.6850586,0.7783203,7,1,13,13,11,9,11,15
11.735651969909668,false,-0.31689453,0.6176758,0.99902344,0.5674387,0.095519155,0.6176758,0.99902344,-2,-1,-5,-2,1,6,0,-5
11.762565970420837,false,-0.10986328,0.4609375,0.89746094,0.53521156,0.09258934,0.4609375,0.89746094,12,9,-6,17,9,22,9,13
11.82283902168274,false,0.0029296875,0.37353516,0.7626953,0.5205638,0.08923253,0.37353516,0.7626953,6,5,-4,-8,8,20,11,9
11.824793934822083,false,-0.05029297,0.5097656,0.7871094,0.50481117,0.09118461,0.5097656,0.7871094,-3,-2,-13,-14,-7,-1,-7,-7
11.852264046669006,false,-0.03857422,0.7109375,0.7993164,0.47735503,0.09887677,0.7109375,0.7993164,62,0,-22,-16,-2,26,26,39
11.8543199300766,false,0.14648438,0.68408203,0.8251953,0.4659429,0.09735118,0.68408203,0.8251953,-38,-1,-8,42,-3,-25,-30,-39
11.882362008094788,false,0.1899414,0.6328125,0.7338867,0.4518947,0.09362594,0.6328125,0.7338867,33,-15,-28,-14,5,10,21,32
11.912349939346313,false,0.21533203,0.6381836,0.6582031,0.43792212,0.08849994,0.6381836,0.6582031,-11,-23,-4,-16,-17,4,-7,3
11.914350032806396,false,0.21484375,0.64746094,0.65478516,0.42553154,0.08410534,0.64746094,0.65478516,-22,-10,1,8,-13,-4,-5,10
11.942291021347046,false,0.27246094,0.4609375,0.61572266,0.4156435,0.07794079,0.4609375,0.61572266,7,-16,16,12,4,-3,6,2
11.972231030464172,false,0.3540039,0.3383789,0.56396484,0.40411144,0.07244831,0.3383789,0.56396484,-73,8,-11,-20,3,-10,-23,-22
11.974350929260254,false,0.43310547,0.41064453,0.5205078,0.39031982,0.06878662,0.41064453,0.5205078,-3,15,-15,-15,4,-8,-4,-40
12.002238988876343,false,0.35107422,0.5209961,0.45410156,0.37554824,0.06530743,0.5209961,0.45410156,-99,-23,20,-15,-22,-42,11,-18
12.032425999641418,false,0.37890625,0.35351562,0.44482422,0.35961956,0.06384285,0.35351562,0.44482422,46,10,-18,-6,-12,27,17,15
12.03442096710205,false,0.35986328,0.2861328,0.56689453,0.34191084,0.06738121,0.2861328,0.56689453,-99,36,19,40,0,30,10,22
12.062314987182617,false,0.068359375,0.60253906,0.7451172,0.3221336,0.076962955,0.60253906,0.7451172,68,15,35,2,11,-11,-8,20
12.09244704246521,false,-0.2109375,1.015625,0.94384766,0.3039474,0.088620804,1.015625,0.94384766,49,-9,-2,-7,15,32,4,-17
12.094437956809998,false,-0.5751953,1.5732422,1.1113281,0.2882574,0.10235182,1.5732422,1.1113281,118,22,4,15,5,-6,-4,12
12.122233033180237,false,-0.5415039,1.8344727,1.0024414,0.28087923,0.1052229,1.8344727,1.0024414,-27,-6,-6,-2,-19,-10,-6,-8
12.152490973472595,false,-0.17626953,1.4326172,0.9042969,0.28252324,0.09673782,1.4326172,0.9042969,25,-15,-8,-3,0,-7,4,2
12.154431939125061,false,0.071777344,1.0600586,0.7739258,0.29119417,0.08312859,1.0600586,0.7739258,-25,1,2,-7,3,-13,3,2
12.18231201171875,false,0.17285156,0.86865234,0.7050781,0.3029101,0.06805254,0.86865234,0.7050781,-74,-26,-1,-11,2,-2,-6,2
12.212350010871887,false,0.095214844,0.7607422,0.65478516,0.3171911,0.053709477,0.7607422,0.65478516,16,19,7,7,-20,-6,-5,-1
12.214367985725403,false,0.12597656,0.65625,0.61816406,0.3334809,0.040098272,0.65625,0.61816406,-37,-10,-13,-21,-6,-23,-13,-12
12.242264032363892,false,0.21289062,0.49169922,0.5683594,0.35039365,0.026061328,0.49169922,0.5683594,11,-15,-22,-6,7,5,-5,-24
12.27228593826294,false,0.29785156,0.34277344,0.52978516,0.36559683,0.0115965605,0.34277344,0.52978516,2,-1,19,5,-5,1,-5,-3
12.274330019950867,false,0.37109375,0.20654297,0.5131836,0.37926456,-0.004760643,0.20654297,0.5131836,24,-1,19,3,3,4,2,9
12.302343964576721,false,0.40527344,0.041503906,0.5493164,0.38988543,-0.020202266,0.041503906,0.5493164,-39,-10,17,-1,0,-2,-6,3
12.332469940185547,false,0.40576172,-0.03857422,0.5810547,0.39599416,-0.032470543,-0.03857422,0.5810547,-31,15,-20,15,1,13,7,12
12.334288001060486,false,0.4423828,-0.09472656,0.55078125,0.3971474,-0.04089269,-0.09472656,0.55078125,90,43,4,-11,23,4,12,22
12.362290024757385,false,0.39990234,-0.068359375,0.5600586,0.39262658,-0.043028407,-0.068359375,0.5600586,-16,-6,3,-11,11,-8,-2,7
12.392794013023376,false,0.27978516,-0.07080078,0.5283203,0.38145825,-0.038328927,-0.07080078,0.5283203,5,-15,-22,9,-22,13,6,2
12.394811034202576,false,0.21289062,-0.009277344,0.53564453,0.36467966,-0.024352668,-0.009277344,0.53564453,34,-2,-4,-3,-10,10,2,4
12.422284960746765,false,0.17773438,0.049316406,0.50683594,0.3443533,-0.003173763,0.049316406,0.50683594,69,-6,-32,-24,-2,-8,7,10
12.452401995658875,false,0.09082031,0.4580078,0.5678711,0.31828544,0.02392481,0.4580078,0.5678711,3,-10,7,1,-5,7,-3,-3
12.4545339345932,false,-0.20263672,1.309082,1.1337891,0.29191822,0.05389165,1.309082,1.1337891,-38,3,10,-1,-22,-3,9,21
12.482295036315918,false,-0.8984375,1.9331055,1.4042969,0.27276137,0.07397332,1.9331055,1.4042969,24,-15,-32,-8,-1,-5,4,-10
12.51219093799591,false,-1.0981445,2.5708008,1.4067383,0.2667235,0.072936974,2.5708008,1.4067383,5,24,12,-3,-12,-7,-12,-39
12.514348030090332,false,-0.110839844,1.6923828,1.0683594,0.26982644,0.0653052,1.6923828,1.0683594,-62,-38,-6,16,10,14,-20,-8
12.542346000671387,false,0.43310547,1.2680664,0.8041992,0.27971187,0.046750885,1.2680664,0.8041992,15,8,6,0,1,-7,0,18
12.572284936904907,false,0.50878906,0.85009766,0.7114258,0.29205045,0.022216585,0.85009766,0.7114258,49,13,-13,-14,10,2,5,-8
12.574327945709229,false,0.23388672,0.57470703,0.6958008,0.30772746,-0.00054929534,0.57470703,0.6958008,1,19,13,6,-7,-3,0,9
12.602293968200684,false,0.10546875,0.32958984,0.6699219,0.32476026,-0.019591814,0.32958984,0.6699219,-22,8,9,-3,12,-10,-3,-24
12.632292032241821,false,0.2109375,0.19628906,0.61816406,0.34117404,-0.03491083,0.19628906,0.61816406,-106,-47,-2,5,27,-8,-21,-56
12.634338974952698,false,0.24853516,0.14648438,0.52783203,0.3550301,-0.045469727,0.14648438,0.52783203,24,14,13,2,-5,-2,0,15
12.662202954292297,false,0.24609375,-0.020019531,0.5239258,0.36656395,-0.05303764,-0.020019531,0.5239258,-5,-20,-14,-10,-18,-18,-10,1
12.692364931106567,false,0.21923828,-0.17480469,0.50634766,0.3732131,-0.057309423,-0.17480469,0.50634766,48,5,10,1,-12,-3,2,8
12.694507956504822,false,0.2919922,-0.21289062,0.4897461,0.37340587,-0.057799175,-0.21289062,0.4897461,-21,-19,-15,-4,3,-4,-7,11
12.722249984741211,false,0.35009766,-0.20458984,0.4555664,0.36631924,-0.054014087,-0.20458984,0.4555664,58,12,9,0,7,0,12,-6
12.752403020858765,false,0.32666016,-0.1953125,0.4189453,0.35101068,-0.04174775,-0.1953125,0.4189453,21,-2,-16,-9,-11,6,-1,-8
12.754281997680664,false,0.27734375,-0.095214844,0.4272461,0.3303104,-0.022948395,-0.095214844,0.4272461,-54,8,-1,14,-2,-2,-3,10
12.782299041748047,false,0.1586914,0.3017578,0.5361328,0.30430388,0.00030515832,0.3017578,0.5361328,-6,22,14,21,-13,4,10,11
12.812304973602295,false,-0.046875,0.9707031,0.93408203,0.27617633,0.026793683,0.9707031,0.93408203,-4,2,12,3,7,4,-9,-34
12.814435958862305,false,-0.70947266,1.6459961,1.3378906,0.2522485,0.050657213,1.6459961,1.3378906,-25,6,18,-9,-6,-18,-10,-4
12.84230899810791,false,-1.3076172,2.3461914,1.6015625,0.24059622,0.059019927,2.3461914,1.6015625,9,-33,-26,-4,-7,-26,-15,-7
12.872278928756714,false,-1.0024414,2.0092773,1.4165039,0.24297123,0.05474634,2.0092773,1.4165039,26,47,29,2,19,32,19,30
12.874305009841919,false,-0.27783203,1.3647461,1.0620117,0.2502433,0.05407697,1.3647461,1.0620117,12,27,13,15,14,13,11,12
12.90241003036499,false,0.2919922,1.015625,0.8076172,0.26213843,0.04315061,1.015625,0.8076172,-8,-2,-15,-14,-1,-3,3,-3
12.932384967803955,false,0.40478516,0.77734375,0.6826172,0.27685645,0.029907333,0.77734375,0.6826172,-4,-15,-7,-8,-21,-4,-18,-35
12.93433701992035,false,0.2211914,0.45751953,0.61816406,0.29198632,0.016418125,0.45751953,0.61816406,8,-8,-1,-6,13,14,7,1
12.962263941764832,false,0.1977539,0.17675781,0.58984375,0.3062658,0.002502371,0.17675781,0.58984375,-27,-25,0,-1,-1,-3,-2,-2
12.992411971092224,false,0.3803711,0.0068359375,0.57910156,0.3192644,-0.014403823,0.0068359375,0.57910156,-15,-8,6,-5,2,-8,-5,-2
12.9944429397583,false,0.5336914,-0.1352539,0.5395508,0.32987383,-0.032712743,-0.1352539,0.5395508,2,11,6,-2,1,-6,6,22
13.022294044494629,false,0.63916016,-0.28320312,0.5180664,0.33707994,-0.051022783,-0.28320312,0.5180664,5,-17,-13,-10,1,-7,-6,-1
13.052461981773376,false,0.67529297,-0.3251953,0.49072266,0.3411274,-0.06622352,-0.3251953,0.49072266,20,12,7,15,11,-5,0,-14
13.054432988166809,false,0.64404297,-0.18652344,0.5097656,0.34130356,-0.074828,-0.18652344,0.5097656,8,4,-5,20,-18,5,4,6
13.082929968833923,false,0.49169922,0.015625,0.5053711,0.33416402,-0.07543867,0.015625,0.5053711,21,-9,-15,-15,2,-4,-4,-7
13.111922979354858,false,0.30810547,0.1508789,0.48828125,0.31864482,-0.066951424,0.1508789,0.48828125,7,8,19,16,25,15,4,3
13.113667964935303,false,0.1616211,0.21728516,0.53515625,0.2991204,-0.050290797,0.21728516,0.53515625,-10,8,9,-1,-2,2,5,9
13.143427968025208,false,-0.032714844,0.32421875,0.6166992,0.27770358,-0.024535568,0.32421875,0.6166992,-26,-22,-24,7,-27,-10,-7,-16
13.171895980834961,false,-0.4345703,0.69384766,0.6411133,0.2552394,0.0066525815,0.69384766,0.6411133,-46,6,22,27,-36,10,6,11
13.173599004745483,false,-0.5058594,1.4101562,0.33935547,0.23247199,0.036070082,1.4101562,0.33935547,-59,-17,-14,-15,-45,-4,-13,-14
13.202286005020142,false,-1.6943359,1.5341797,0.72021484,0.21709411,0.053770006,1.5341797,0.72021484,-60,-13,-7,-9,-60,-14,3,8
13.23195993900299,false,-1.0703125,1.7026367,0.42138672,0.2136729,0.06036061,1.7026367,0.42138672,-47,-17,-23,-3,-57,11,4,10
13.233711957931519,false,-0.36279297,1.6782227,2.2109375,0.2209486,0.058472034,1.6782227,2.2109375,-69,-12,1,-12,-49,5,-3,-18
13.262362003326416,false,-0.59765625,1.0820312,0.35058594,0.22862685,0.059262324,1.0820312,0.35058594,-15,26,23,9,-31,-3,3,6
13.291823983192444,false,0.69091797,1.2060547,1.0351562,0.24371013,0.041442316,1.2060547,1.0351562,38,24,27,-7,35,-1,-2,6
13.293723940849304,false,-0.19042969,0.8222656,1.4199219,0.26219547,0.022276849,0.8222656,1.4199219,26,-12,-21,-9,25,2,-1,5
13.35237193107605,false,-0.46435547,0.38476562,0.87890625,0.2806998,0.0040893424,0.38476562,0.87890625,52,36,40,34,-18,0,12,26
13.354115962982178,false,0.12109375,0.095214844,0.59277344,0.2984597,-0.013976947,0.095214844,0.59277344,0,2,0,-13,5,-6,3,-2
13.382387042045593,false,0.29101562,-0.14697266,0.5595703,0.33128583,-0.032835625,-0.14697266,0.5595703,-23,-7,-13,-12,5,-4,1,-19
13.412389039993286,false,0.32470703,-0.11035156,0.48486328,0.33976692,-0.03631423,-0.11035156,0.48486328,-21,-13,-5,-8,-8,-4,-7,-5
13.41378402709961,false,0.37695312,-0.1586914,0.41992188,0.3426304,-0.036801945,-0.1586914,0.41992188,14,-3,-5,-5,11,-1,-3,4
13.442306995391846,false,0.2734375,-0.14208984,0.08642578,0.33862397,-0.03210458,-0.14208984,0.08642578,18,-10,4,28,44,1,-7,-9
13.472216010093689,false,-0.34960938,-0.39648438,0.27246094,0.32812276,-0.015075581,-0.39648438,0.27246094,-13,-6,-7,-14,35,1,-4,-12
13.474246978759766,false,0.14111328,-0.10888672,1.2177734,0.31254554,0.0050656665,-0.10888672,1.2177734,-2,-14,2,-19,-4,1,5,5
13.502458930015564,false,0.19335938,0.2397461,0.49023438,0.29246342,0.0316754,0.2397461,0.49023438,-71,-14,59,47,-9,-4,-8,5
13.531888008117676,false,-0.06591797,0.8774414,0.99365234,0.2691515,0.060299702,0.8774414,0.99365234,9,-4,2,-6,-10,-1,-2,-4
13.533676028251648,false,-0.9321289,1.6772461,1.546875,0.25152713,0.080749914,1.6772461,1.546875,-2,-2,-17,-4,-26,-3,0,4
13.562494993209839,false,-1.6113281,2.260254,1.6479492,0.24669208,0.08428544,2.260254,1.6479492,21,12,-32,-14,4,0,6,-9
13.592232942581177,false,-0.9472656,1.8686523,1.3354492,0.25054443,0.07263041,1.8686523,1.3354492,29,12,-1,12,10,-3,0,9
13.593742966651917,false,-0.24511719,1.1235352,1.0014648,0.26074088,0.06542936,1.1235352,1.0014648,17,-3,-16,-4,5,2,9,10
13.622285008430481,false,0.0859375,0.7841797,0.9243164,0.27123186,0.05224448,0.7841797,0.9243164,11,-26,-10,-16,2,-5,-3,-9
13.651999950408936,false,-0.05908203,0.6928711,0.77246094,0.28161094,0.03967211,0.6928711,0.77246094,-14,15,22,0,-1,3,-2,-6
13.653718948364258,false,-0.17382812,0.6098633,0.6923828,0.29191914,0.029539801,0.6098633,0.6923828,-5,9,-24,-10,8,3,3,0
13.682253003120422,false,-0.030273438,0.36523438,0.59033203,0.30309424,0.018615332,0.36523438,0.59033203,-19,-5,-5,-1,-3,-7,-11,-14
13.711895942687988,false,0.17529297,0.14453125,0.53564453,0.31327575,0.0076289633,0.14453125,0.53564453,8,4,8,-8,4,4,-2,-6
13.713773965835571,false,0.3095703,-0.119140625,0.48828125,0.3226811,-0.002624416,-0.119140625,0.48828125,-20,-8,-4,-8,3,2,-2,-9
13.742316961288452,false,0.41455078,-0.24414062,0.4736328,0.32945752,-0.01086392,-0.24414062,0.4736328,22,15,-3,-15,-2,7,8,18
13.772197961807251,false,0.53759766,-0.29833984,0.43066406,0.3333666,-0.018432206,-0.29833984,0.43066406,11,4,1,3,2,-1,1,10
13.773636937141418,false,0.5756836,-0.20654297,0.46191406,0.33458585,-0.023009643,-0.20654297,0.46191406,-30,-14,11,11,-3,-7,-8,-16
13.802359938621521,false,0.49902344,-0.111816406,0.46728516,0.33116305,-0.023741694,-0.111816406,0.46728516,-17,-1,-6,7,10,0,1,5
13.831828951835632,false,0.40966797,0.016601562,0.5097656,0.32195646,-0.018188251,0.016601562,0.5097656,-39,-5,21,13,4,5,-6,-14
13.833734035491943,false,0.2421875,0.21826172,0.57421875,0.30529782,-0.0030517573,0.21826172,0.57421875,35,-6,-17,-26,-8,-3,-7,-15
13.862375974655151,false,0.0073242188,0.24169922,0.6948242,0.28489658,0.019591218,0.24169922,0.6948242,20,-1,20,-7,3,-9,-13,-12
13.891930937767029,false,-0.39160156,0.6411133,0.95214844,0.26305467,0.049925454,0.6411133,0.95214844,-23,-9,-8,-14,-10,-5,1,10
13.893826007843018,false,-1.0717773,1.2270508,1.1132812,0.24114487,0.07867268,1.2270508,1.1132812,-28,-9,-18,3,3,0,3,9
13.922307968139648,false,-1.4663086,1.7749023,1.3774414,0.22649609,0.09332054,1.7749023,1.3774414,30,51,-8,-2,-19,2,3,6
13.951907992362976,false,-1.4272461,1.7548828,1.3266602,0.22369038,0.09582371,1.7548828,1.3266602,-18,4,14,28,10,-2,1,6
13.981917023658752,false,-0.6479492,1.3852539,1.105957,0.22704545,0.09740982,1.3852539,1.105957,5,-13,10,9,-4,-6,2,9
13.98378300666809,false,-0.075683594,0.9223633,1.0019531,0.23425329,0.08758558,0.9223633,1.0019531,-5,-14,-15,-8,3,-13,4,4
14.012472033500671,false,-0.028320312,0.7080078,0.9736328,0.24419516,0.07269094,0.7080078,0.9736328,17,-14,-16,1,6,3,0,-9
14.014287948608398,false,-0.067871094,0.6958008,0.96875,0.2562144,0.05309827,0.6958008,0.96875,33,1,-3,-4,-7,2,-2,7
14.042412996292114,false,-0.05810547,0.57714844,0.90234375,0.27049667,0.031614907,0.57714844,0.90234375,-9,-9,-8,-2,6,2,-2,-7
14.072374939918518,false,0.033203125,0.40820312,0.8613281,0.28722084,0.009093902,0.40820312,0.8613281,-7,4,-5,-2,0,-4,2,7
14.074293971061707,false,0.12011719,0.21582031,0.78027344,0.30334082,-0.012451012,0.21582031,0.78027344,-26,-20,-9,-9,-3,9,-8,-13
14.102445006370544,false,0.15283203,0.08496094,0.6665039,0.31730407,-0.030943098,0.08496094,0.6665039,17,20,24,5,7,8,4,9
14.132367968559265,false,0.20947266,0.033691406,0.6069336,0.32878122,-0.045347027,0.033691406,0.6069336,23,8,-12,-4,3,1,3,-5
14.134367942810059,false,0.18115234,0.017578125,0.5595703,0.3372139,-0.052245267,0.017578125,0.5595703,3,0,4,7,-4,-1,0,-1
14.16220998764038,false,0.12402344,0.0034179688,0.48583984,0.34093007,-0.05187801,0.0034179688,0.48583984,8,-1,4,2,-8,-7,-1,0
14.19235897064209,false,0.1640625,-0.0024414062,0.3959961,0.33983645,-0.04583642,-0.0024414062,0.3959961,-8,-4,-15,0,-2,-3,1,0
14.197445034980774,false,0.115234375,0.076660156,0.3984375,0.33331457,-0.033447426,0.076660156,0.3984375,5,2,1,-18,6,-1,1,-3
14.222056031227112,false,0.10839844,0.05419922,0.40625,0.32207724,-0.017944044,0.05419922,0.40625,29,2,5,0,3,0,-4,-5
14.252269983291626,false,0.1508789,0.019042969,0.4453125,0.3066384,0.0018310414,0.019042969,0.4453125,-26,-12,-10,-1,3,-4,1,7
14.254801034927368,false,0.18652344,0.091796875,0.49072266,0.2876499,0.02593915,0.091796875,0.49072266,21,10,-4,-3,-7,5,6,6
14.282824993133545,false,0.05419922,0.44433594,0.7128906,0.2649413,0.0541967,0.44433594,0.7128906,-12,3,4,5,-6,-2,3,0
14.31232500076294,false,-0.38720703,0.97265625,1.1845703,0.24468793,0.08434989,0.97265625,1.1845703,-9,-9,2,-2,-18,2,-4,-5
14.314360976219177,false,-0.91503906,1.4907227,1.277832,0.23144117,0.1080303,1.4907227,1.277832,-9,4,0,1,-19,1,3,-6
14.342257022857666,false,-0.7739258,1.7172852,0.9765625,0.22308356,0.11810306,1.7172852,0.9765625,20,3,-1,9,32,23,35,-11
14.372426986694336,false,-0.359375,1.4926758,0.6503906,0.22003387,0.12646607,1.4926758,0.6503906,4,-4,-11,5,11,-14,-12,-1
14.374454975128174,false,-0.25732422,0.94628906,0.6220703,0.22740792,0.13402785,0.94628906,0.6220703,-36,1,-1,6,75,-3,-7,6
14.402346968650818,false,-0.3935547,0.71435547,0.71728516,0.23509192,0.14275181,0.71435547,0.71728516,75,83,-1,-32,-4,-6,23,-23
14.43274700641632,false,-0.5336914,1.0615234,0.72558594,0.24095869,0.1509959,1.0615234,0.72558594,-33,-15,1,-11,1,3,-16,-6
14.435014963150024,false,-0.31152344,1.1967773,0.46728516,0.24987891,0.15795961,1.1967773,0.46728516,-67,-25,-8,2,-44,-4,-22,8
14.462996006011963,false,-0.091796875,1.003418,0.36816406,0.26457477,0.1654584,1.003418,0.36816406,-16,6,15,35,-74,24,13,13
14.49225902557373,false,-0.10595703,0.79589844,0.43408203,0.28124356,0.1730307,0.79589844,0.43408203,81,-10,16,23,-16,-10,-2,-21
14.522454023361206,false,-0.114746094,0.7832031,0.5229492,0.29913008,0.18157764,0.7832031,0.5229492,17,-39,-5,-3,24,-16,-12,16
14.52442193031311,false,-0.12890625,0.90625,0.56591797,0.3183505,0.18908164,0.90625,0.56591797,-8,-12,-16,-31,74,-26,-62,-8
14.552322030067444,false,0.06591797,0.9194336,0.5527344,0.33929002,0.19402824,0.9194336,0.5527344,3,-2,0,11,-2,21,12,8
14.55496895313263,false,0.20703125,1.0786133,0.41308594,0.3586848,0.19762146,1.0786133,0.41308594,-4,10,22,14,-16,18,24,11
14.582913994789124,false,0.2421875,1.1191406,0.34326172,0.38074085,0.20025821,1.1191406,0.34326172,-19,-14,2,-8,37,-11,-11,-2
14.61242401599884,false,0.18066406,1.3383789,0.19628906,0.4066103,0.2023286,1.3383789,0.19628906,-6,-9,-18,-8,3,-14,-5,-5
14.614998936653137,false,0.24072266,1.2495117,0.3461914,0.43828452,0.19768885,1.2495117,0.3461914,-5,25,7,-4,-8,2,11,6
14.642969965934753,false,0.18603516,0.52734375,-0.08886719,0.4678944,0.18908647,0.52734375,-0.08886719,1,8,-2,-1,-14,1,3,-8
14.672448992729187,false,-1.0234375,0.064453125,1.4848633,0.48027557,0.1845054,0.064453125,1.4848633,98,-9,-9,-2,-50,-1,26,-3
14.674965977668762,false,-1.2587891,-0.15625,1.5673828,0.48310414,0.17981362,-0.15625,1.5673828,-128,-48,-13,-29,17,9,6,15
14.70296597480774,false,-0.45410156,0.56689453,1.0424805,0.46782917,0.1846903,0.56689453,1.0424805,-93,16,-5,-16,0,10,7,3
14.732326984405518,false,0.10058594,1.2001953,0.29541016,0.44054618,0.20245105,1.2001953,0.29541016,78,13,13,20,-29,7,-7,-5
14.7620450258255,false,0.24658203,1.6704102,0.026855469,0.42588946,0.21355507,1.6704102,0.026855469,3,31,2,-4,-25,-62,0,11
14.763772964477539,false,0.17578125,1.1376953,0.1328125,0.41874513,0.21355331,1.1376953,0.1328125,41,-2,5,6,32,11,31,6
14.792243003845215,false,0.05517578,0.87060547,0.33984375,0.40678036,0.2144065,0.87060547,0.33984375,15,-22,1,0,21,-6,-33,53
14.82197904586792,false,0.2475586,1.3496094,0.15039062,0.39927834,0.21581292,1.3496094,0.15039062,12,-34,-30,-19,1,2,-11,2
14.823794960975647,false,0.7714844,1.5537109,0.0053710938,0.40105402,0.21544981,1.5537109,0.0053710938,-7,56,79,33,28,-4,-28,-24
14.852322936058044,false,0.7495117,1.4394531,-0.111328125,0.4114811,0.21904564,1.4394531,-0.111328125,-11,-9,-14,2,-33,19,17,9
14.881919026374817,false,0.65185547,1.6674805,-0.26904297,0.43213597,0.22375853,1.6674805,-0.26904297,38,18,-10,-2,8,-5,-24,-16
14.883689999580383,false,0.6298828,1.7026367,-0.09472656,0.46296468,0.21906134,1.7026367,-0.09472656,-12,-13,-20,-11,-18,-3,8,-9
14.912402033805847,false,0.3466797,-0.57714844,0.064453125,0.50768167,0.19286776,-0.57714844,0.064453125,2,11,-4,2,-19,111,0,-17
14.941938996315002,false,-1.8652344,1.0102539,0.8828125,0.5142696,0.18029343,1.0102539,0.8828125,106,-18,-3,8,18,-86,1,-27
14.943719983100891,false,-1.4267578,0.011230469,1.2167969,0.51580286,0.16357256,0.011230469,1.2167969,-128,-17,2,-1,-62,-42,-7,8
14.972277045249939,false,-0.107421875,0.19873047,0.9736328,0.50891125,0.1551514,0.19873047,0.9736328,8,-17,-5,-8,-26,4,4,-1
15.001933932304382,false,0.05078125,0.23339844,0.5371094,0.4836446,0.1683967,0.23339844,0.5371094,12,7,-4,4,83,-1,-4,-5
15.003713965415955,false,-0.3046875,1.3803711,-0.0126953125,0.45921862,0.18828939,1.3803711,-0.0126953125,8,-43,1,0,41,11,12,3
15.032317996025085,false,-0.2109375,1.965332,-0.30322266,0.44554618,0.1942093,1.965332,-0.30322266,27,81,-8,-10,-32,-51,-6,8
15.061982035636902,false,0.2109375,1.1313477,-0.08300781,0.44334278,0.18297654,1.1313477,-0.08300781,-71,-1,1,-12,29,72,83,26
15.063696026802063,false,0.5102539,0.8310547,0.118652344,0.4388923,0.17522734,0.8310547,0.118652344,-4,-45,-17,-15,31,-57,-57,-32
15.09234094619751,false,0.9042969,0.7783203,0.044921875,0.43852788,0.1699181,0.7783203,0.044921875,-5,-39,11,10,-42,47,-39,-38
15.121971011161804,false,0.80371094,0.8598633,0.016601562,0.4391903,0.17046393,0.8598633,0.016601562,9,-2,1,5,-17,11,-3,-3
15.123770952224731,false,0.3515625,1.2006836,0.10058594,0.4403686,0.17706297,1.2006836,0.10058594,-23,-24,-1,17,35,0,8,11
15.152359008789062,false,0.2783203,1.5063477,0.10546875,0.4529405,0.18225041,1.5063477,0.10546875,-3,-10,0,8,-17,-17,-64,-5
15.182090044021606,false,0.3491211,1.3457031,0.26708984,0.47507733,0.18444034,1.3457031,0.26708984,9,0,8,21,10,3,28,40
15.184278011322021,false,0.3095703,1.1831055,0.59716797,0.4996863,0.1925016,1.1831055,0.59716797,13,35,4,-4,-3,-13,8,4
15.212564945220947,false,-0.6279297,0.77783203,1.8457031,0.5194759,0.19653533,0.77783203,1.8457031,-18,10,-5,-12,50,-7,7,-10
15.242022037506104,false,-2.2441406,0.85546875,1.1171875,0.52398676,0.18328856,0.85546875,1.1171875,109,35,-4,-16,40,0,13,-28
15.243775010108948,false,-0.8930664,0.029296875,1.3134766,0.51854354,0.17425163,0.029296875,1.3134766,-29,-10,-7,-4,-77,1,-8,13
15.2722669839859,false,0.2705078,0.45117188,0.13330078,0.51128066,0.17596062,0.45117188,0.13330078,-4,-10,-4,-3,-12,-2,-4,-7
15.302155017852783,false,0.11328125,0.61376953,1.1547852,0.49418133,0.18962844,0.61376953,1.1547852,-11,29,0,7,15,7,5,3
15.30407202243805,false,0.26171875,1.8383789,-0.13085938,0.47624916,0.20342669,1.8383789,-0.13085938,-9,61,20,17,-25,-5,-5,-8
15.33244502544403,false,-0.8964844,1.597168,-0.13720703,0.458984,0.2149046,1.597168,-0.13720703,-8,-35,-5,0,-25,1,11,2
15.36201000213623,false,0.8852539,1.331543,0.6904297,0.45970112,0.19487861,1.331543,0.6904297,-31,12,-5,-9,74,-8,-1,-3
15.363683938980103,false,0.24169922,1.1328125,-0.12939453,0.45835507,0.17241718,1.1328125,-0.12939453,0,-44,-11,1,72,-4,2,16
15.392287015914917,false,-0.37353516,0.74072266,0.54541016,0.46002275,0.1531985,0.74072266,0.54541016,14,-3,-6,-23,-37,4,11,6
15.422482013702393,false,1.3613281,1.0561523,0.33984375,0.4659441,0.13385059,1.0561523,0.33984375,62,2,-3,4,26,-14,-26,-1
15.424425959587097,false,-0.08251953,0.6870117,-0.18164062,0.47417155,0.120663814,0.6870117,-0.18164062,-74,-9,-5,-3,-11,5,-26,-16
15.452419996261597,false,0.6777344,0.77978516,0.9042969,0.4876163,0.107118115,0.77978516,0.9042969,-40,20,15,18,-35,-7,2,-7
15.482507944107056,false,0.9375,0.8051758,-0.106933594,0.5028691,0.09497079,0.8051758,-0.106933594,41,-1,-14,-7,-20,7,22,3
15.484346985816956,false,-0.54833984,0.28857422,0.118652344,0.5187299,0.08563103,0.28857422,0.118652344,21,8,-1,-19,39,9,10,3
15.512395977973938,false,0.71533203,0.3461914,0.26123047,0.5360565,0.07964861,0.3461914,0.26123047,0,-38,-4,51,-48,0,9,6
15.542542934417725,false,0.07861328,0.1640625,0.44628906,0.5566471,0.08545022,0.1640625,0.44628906,-17,-8,6,-13,28,13,42,-46
15.544366002082825,false,-0.08544922,0.2939453,0.5800781,0.5792802,0.10009688,0.2939453,0.5800781,12,-1,0,-1,12,-7,-45,6
15.57253098487854,false,-0.19140625,0.27001953,0.54248047,0.59992415,0.11676212,0.27001953,0.54248047,-2,2,-5,-14,-5,1,-3,5
15.602488040924072,false,-1.3154297,0.3701172,4.09375,0.62323034,0.12530525,0.3701172,4.09375,7,-2,-7,-16,108,-101,-4,-8
15.60436999797821,false,-1.5917969,-0.123535156,2.0083008,0.6238329,0.1003406,-0.123535156,2.0083008,3,46,3,-15,-48,97,-10,42
15.632352948188782,false,0.11279297,0.58496094,1.4487305,0.61376953,0.08190918,0.58496094,1.4487305,30,-14,14,-12,-46,-23,-17,-23
15.662551999092102,false,0.34960938,0.6582031,0.4033203,0.6096268,0.0620125,0.6582031,0.4033203,-78,4,10,-11,47,-22,-4,-11
15.664310932159424,false,0.52734375,0.5336914,0.095703125,0.611851,0.03887771,0.5336914,0.095703125,-13,-6,-8,-25,-25,6,9,9
15.692415952682495,false,-0.11767578,0.5185547,0.8100586,0.6170109,0.029541325,0.5185547,0.8100586,5,-14,-2,6,-44,5,16,6
15.722437024116516,false,-0.37158203,0.375,0.93359375,0.6218095,0.021178631,0.375,0.93359375,11,-2,-3,-1,-22,7,10,-7
15.724367022514343,false,0.22314453,0.32714844,0.6982422,0.6184741,0.007568419,0.32714844,0.6982422,7,-3,-3,13,25,1,2,-9
15.75246798992157,false,0.30419922,0.2548828,0.38916016,0.6130351,-0.0021972582,0.2548828,0.38916016,6,3,-4,15,-2,-3,-15,1
15.782546043395996,false,0.27392578,0.19921875,0.27978516,0.6111408,-0.006652786,0.19921875,0.27978516,-10,-9,6,0,42,7,-4,2
15.784518957138062,false,0.1899414,0.0390625,0.0703125,0.6120642,-0.006591836,0.0390625,0.0703125,0,-2,4,-7,-22,-2,-3,2
15.812294006347656,false,0.13916016,-0.08300781,0.2241211,0.61405087,-0.0023802787,-0.08300781,0.2241211,9,17,-12,-7,-10,3,-18,-11
15.842514038085938,false,0.017578125,-0.010253906,0.24951172,0.6152212,0.011230228,-0.010253906,0.24951172,-13,-16,-8,9,1,23,7,8
15.844360947608948,false,0.109375,0.06591797,0.24658203,0.61784416,0.031493388,0.06591797,0.24658203,7,9,-2,-2,-11,7,11,-21
15.872352004051208,false,0.12109375,0.23339844,0.4638672,0.61962235,0.05914244,0.23339844,0.4638672,7,-5,-3,2,-18,-21,27,8
15.902361989021301,false,-0.2241211,0.46533203,0.8598633,0.6196973,0.09112656,0.46533203,0.8598633,-5,10,6,-4,-2,-13,-32,-2
15.904472947120667,false,-1.0268555,1.6801758,4.76709,0.6272622,0.11279367,1.6801758,4.76709,-43,-2,21,-4,111,50,4,-4
15.932343006134033,false,-1.3203125,0.95947266,2.2211914,0.62854326,0.097595714,0.95947266,2.2211914,44,-41,-12,2,-37,-42,-4,24
15.962371945381165,false,0.5263672,0.26660156,1.7094727,0.6257961,0.07861361,0.26660156,1.7094727,-2,9,0,27,16,-19,1,-3
15.964367985725403,false,0.32470703,0.41308594,0.8300781,0.6198556,0.07183636,0.41308594,0.8300781,-9,4,0,13,47,43,-4,0
15.99229097366333,false,0.35351562,0.22021484,0.045410156,0.6172902,0.059995677,0.22021484,0.045410156,6,5,-6,0,-36,7,-8,4
16.022325038909912,false,-0.06298828,0.33398438,0.67871094,0.61957836,0.0541391,0.33398438,0.67871094,6,9,1,-17,-37,25,98,15
16.02444899082184,false,-0.43310547,0.26953125,0.8144531,0.6226335,0.04486184,0.26953125,0.8144531,-4,6,-5,-19,4,-59,-99,-41
16.052310943603516,false,0.1977539,0.110839844,0.61865234,0.6186994,0.025939355,0.110839844,0.61865234,4,8,7,-23,-27,-24,7,12
16.08250093460083,false,0.1772461,-0.043945312,0.3227539,0.6148568,0.011779567,-0.043945312,0.3227539,-2,5,-4,-33,-21,8,-23,-2
16.084367990493774,false,0.25732422,-0.107421875,0.17382812,0.615292,0.006774865,-0.107421875,0.17382812,3,-4,-5,13,1,6,-6,-9
16.11232101917267,false,0.25830078,-0.017089844,0.12548828,0.6178608,0.013855023,-0.017089844,0.12548828,5,1,-8,-2,-12,-15,92,8
16.1423579454422,false,0.13769531,0.07128906,0.27148438,0.6215104,0.031066366,0.07128906,0.27148438,10,1,-3,13,5,-2,-82,-33
16.1443749666214,false,0.045410156,0.15283203,0.42919922,0.62298465,0.053344626,0.15283203,0.42919922,-7,-9,-1,9,5,41,48,12
16.172385931015015,false,-0.005859375,0.12451172,0.3251953,0.62408113,0.079772525,0.12451172,0.3251953,-8,-6,0,8,0,-12,-12,13
16.20253300666809,false,-0.7890625,1.2294922,4.965332,0.62456983,0.10516308,1.2294922,4.965332,3,-3,-3,-5,76,-128,-25,0
16.204434037208557,false,-1.7817383,0.61621094,1.9799805,0.6248874,0.090211324,0.61621094,1.9799805,32,13,-3,0,-51,75,-4,33
16.232468962669373,false,0.020996094,0.5229492,1.590332,0.61963636,0.09271352,0.5229492,1.590332,0,-10,0,7,6,-8,22,1
16.262423038482666,false,-0.28173828,0.40234375,0.94384766,0.61323535,0.09204329,0.40234375,0.94384766,-4,11,-9,0,1,8,-5,-4
16.26448893547058,false,0.12646484,0.021972656,0.9746094,0.608155,0.076416105,0.021972656,0.9746094,-15,-10,-5,-1,-3,-16,-11,0
16.29238998889923,false,-0.20654297,0.12207031,1.1108398,0.6000371,0.06683355,0.12207031,1.1108398,-10,-14,-28,-8,-10,3,-8,-10
16.322327971458435,false,-0.16308594,0.2890625,0.8359375,0.5897852,0.060241956,0.2890625,0.8359375,-9,-5,19,17,-2,11,-7,4
16.324383020401,false,-0.038085938,0.58447266,0.5229492,0.57774454,0.056456126,0.58447266,0.5229492,2,1,8,-10,-9,9,8,7
16.35234296321869,false,-0.087890625,0.546875,0.63427734,0.5700038,0.05596889,0.546875,0.63427734,-4,3,24,36,2,21,-2,1
16.38233196735382,false,-0.16601562,0.5151367,0.8095703,0.5656857,0.052186154,0.5151367,0.8095703,-5,9,4,-12,0,2,-5,-10
16.384323954582214,false,0.014160156,0.4423828,0.89404297,0.5596278,0.046691593,0.4423828,0.89404297,-2,-1,-8,-5,-11,-30,-14,-11
16.41234600543976,false,0.14111328,0.36767578,0.7871094,0.55168384,0.04150293,0.36767578,0.7871094,2,0,3,4,2,17,7,-7
16.442410945892334,false,0.24414062,0.13964844,0.49414062,0.54322165,0.037964478,0.13964844,0.49414062,-1,-3,-2,5,9,12,7,8
16.444376945495605,false,0.27783203,-0.017578125,0.4243164,0.53306,0.041502267,-0.017578125,0.4243164,10,-7,0,-5,-24,-5,5,15
16.47239601612091,false,0.22070312,-0.0087890625,0.47216797,0.51909846,0.054564845,-0.0087890625,0.47216797,-11,12,34,37,7,-3,-6,7
16.502413034439087,false,0.15039062,-0.005859375,0.5473633,0.50212926,0.06988428,-0.005859375,0.5473633,104,10,-29,-18,-5,-24,0,15
16.504369974136353,false,0.09814453,0.036621094,0.55810547,0.48051992,0.083006114,0.036621094,0.55810547,-116,-15,-2,-17,-19,-2,-8,-53
16.53247594833374,false,0.14941406,0.032226562,0.44189453,0.4565861,0.09539421,0.032226562,0.44189453,13,-51,-48,-55,7,38,-26,-78
16.562431931495667,false,0.25927734,0.23632812,0.4951172,0.42948472,0.11211645,0.23632812,0.4951172,32,20,-13,-12,-11,31,7,22
16.564442038536072,false,-0.1508789,0.8769531,1.1088867,0.4018441,0.14269616,0.8769531,1.1088867,-128,-16,26,-7,13,0,2,-8
16.592352032661438,false,-0.8276367,1.3041992,1.3037109,0.3844619,0.16784732,1.3041992,1.3037109,17,60,42,28,1,-12,2,2
16.62240993976593,false,-1.1640625,2.0654297,1.5043945,0.37188378,0.18359207,2.0654297,1.5043945,127,-5,-38,-14,-9,-5,11,49
16.624397039413452,false,-0.72265625,2.333496,1.0883789,0.36767873,0.17834616,2.333496,1.0883789,-84,-11,-10,11,5,-2,-4,3
16.652313947677612,false,0.0034179688,1.6669922,0.8623047,0.375246,0.16864096,1.6669922,0.8623047,-33,1,1,21,-4,-11,12,14
16.682412981987,false,0.08642578,1.097168,0.8857422,0.38590962,0.15276478,1.097168,0.8857422,14,-3,28,0,-3,-4,-5,17
16.68446397781372,false,-0.080078125,0.80810547,0.89208984,0.39867604,0.13592339,0.80810547,0.89208984,1,-27,5,-7,2,-11,-2,-9
16.712361931800842,false,-0.27539062,0.6557617,0.86328125,0.41143715,0.1198728,0.6557617,0.86328125,24,-4,-28,-12,10,-5,-2,-2
16.742395043373108,false,-0.09277344,0.48486328,0.7260742,0.42407364,0.10302768,0.48486328,0.7260742,-16,29,-12,-3,11,8,7,18
16.744504928588867,false,0.123535156,0.28710938,0.64746094,0.43688908,0.085082896,0.28710938,0.64746094,-9,-4,2,12,18,-13,-18,-6
16.772348999977112,false,0.22460938,0.05029297,0.5307617,0.44854277,0.06414729,0.05029297,0.5307617,-1,15,-11,-5,-9,-12,6,5
16.802484035491943,false,0.26513672,-0.18164062,0.4711914,0.45678297,0.043578707,-0.18164062,0.4711914,-2,-8,-22,-6,1,6,8,-1
16.804505944252014,false,0.27734375,-0.29345703,0.45117188,0.46195918,0.027525907,-0.29345703,0.45117188,57,-11,-25,-12,6,3,1,-19
16.83241903781891,false,0.3232422,-0.28173828,0.46972656,0.46447527,0.017822178,-0.28173828,0.46972656,-8,-8,-10,-9,-4,-5,-2,-19
16.862414956092834,false,0.28857422,-0.13232422,0.46679688,0.46142864,0.015747167,-0.13232422,0.46679688,25,27,62,43,-6,-10,-7,-11
16.864318013191223,false,0.21484375,-0.00390625,0.46777344,0.45269537,0.02044667,-0.00390625,0.46777344,2,-12,24,12,1,-8,-1,15
16.892398953437805,false,0.15917969,0.080566406,0.47460938,0.43913904,0.03381279,0.080566406,0.47460938,-64,-38,-3,8,-28,-7,-7,-14
16.922526955604553,false,0.095214844,0.3251953,0.5571289,0.42060104,0.055787165,0.3251953,0.5571289,-34,-7,-15,-10,14,8,1,-4
16.924332976341248,false,-0.13476562,0.62890625,0.87890625,0.39860287,0.08507922,0.62890625,0.87890625,3,-5,2,-6,-3,3,-2,-23
16.952360033988953,false,-0.6191406,1.0678711,1.0727539,0.37792158,0.11590327,1.0678711,1.0727539,9,3,-15,-28,-1,-4,-2,20
16.982275009155273,false,-0.9736328,1.6367188,1.3735352,0.36290237,0.13927737,1.6367188,1.3735352,33,6,-8,-4,3,8,0,-9
16.984360933303833,false,-1.0092773,1.8344727,1.4511719,0.35875922,0.14648215,1.8344727,1.4511719,12,-12,7,-1,-4,-2,3,21
17.012295961380005,false,-0.5805664,1.5996094,1.3183594,0.3622888,0.1475155,1.5996094,1.3183594,3,-2,-16,-7,-13,5,4,10
17.042542934417725,false,-0.025390625,1.1054688,1.1655273,0.37290636,0.13323316,1.1054688,1.1655273,-18,-2,14,2,10,-12,-14,-31
17.044376969337463,false,0.14404297,0.74316406,1.0620117,0.38511825,0.11205659,0.74316406,1.0620117,-26,-26,-31,-6,3,7,8,0
17.07254993915558,false,0.01953125,0.5727539,0.9301758,0.39763474,0.08880408,0.5727539,0.9301758,5,25,7,6,7,-2,-5,-1
17.102519989013672,false,0.0024414062,0.484375,0.7597656,0.41034475,0.064576045,0.484375,0.7597656,18,2,9,8,-8,-5,-6,-20
17.104405999183655,false,0.049316406,0.3149414,0.6298828,0.4222439,0.04187038,0.3149414,0.6298828,1,-8,-14,-7,6,-4,-3,8
17.132459044456482,false,0.107910156,0.14111328,0.5,0.43133405,0.021728445,0.14111328,0.5,-40,-8,6,1,6,6,5,6
17.162567973136902,false,0.12451172,0.052734375,0.4169922,0.4376134,0.0076292437,0.052734375,0.4169922,26,12,11,7,-3,-2,-2,6
17.16439199447632,false,0.079589844,0.06738281,0.33447266,0.44134444,0.0027465771,0.06738281,0.33447266,15,11,2,-2,-1,-3,0,4
17.193357944488525,false,0.07080078,0.056640625,0.2709961,0.44286472,0.0060423934,0.056640625,0.2709961,6,4,5,-2,0,1,9,6
17.19535994529724,false,0.06738281,0.13867188,0.26123047,0.44140694,0.017883329,0.13867188,0.26123047,7,5,8,6,34,-1,-51,-24
17.222949028015137,false,0.071777344,0.2763672,0.2944336,0.436817,0.03747459,0.2763672,0.2944336,33,11,15,-5,-54,-11,10,-4
17.253563046455383,false,0.109375,0.53222656,0.4140625,0.43054554,0.06433158,0.53222656,0.4140625,18,14,12,24,-24,-10,34,0
17.25602400302887,false,0.15283203,0.62890625,0.88964844,0.427106,0.09637044,0.62890625,0.88964844,-48,-25,-16,-7,50,8,-5,6
17.283100962638855,false,-0.21679688,0.6230469,1.6220703,0.42350957,0.124935016,0.6230469,1.6220703,-60,115,-13,-49,-44,8,16,17
17.31232500076294,false,0.25195312,0.9604492,0.71533203,0.41624963,0.14739631,0.9604492,0.71533203,-42,-128,5,48,-37,3,-4,7
17.314908981323242,false,0.58496094,0.99658203,0.95703125,0.4094151,0.16216695,0.99658203,0.95703125,-6,-37,-16,-24,-72,-3,-11,1
17.342993021011353,false,0.11767578,1.0644531,1.5068359,0.40165862,0.1758973,1.0644531,1.5068359,-23,-78,-15,0,-65,-10,-8,-34
17.37229895591736,false,-0.63720703,1.0874023,0.30664062,0.39654452,0.19341998,1.0874023,0.30664062,2,42,15,34,-63,7,-18,22
17.37492001056671,false,-0.20214844,1.3867188,-0.4892578,0.39459056,0.20965484,1.3867188,-0.4892578,18,49,2,1,-93,-4,-1,13
17.402951955795288,false,0.57128906,1.7841797,0.25830078,0.3981776,0.21703243,1.7841797,0.25830078,-9,-39,-14,-39,70,-17,-22,-8
17.43239200115204,false,0.55810547,1.7695312,0.27392578,0.40794468,0.21337143,1.7695312,0.27392578,-6,-89,-5,-36,58,-8,-7,-13
17.434926986694336,false,0.07519531,1.4262695,0.51171875,0.42449096,0.20440263,1.4262695,0.51171875,1,43,5,13,70,-13,24,-1
17.463034987449646,false,-0.022460938,1.1411133,0.6435547,0.44268745,0.1943357,1.1411133,0.6435547,-17,-5,1,-2,10,28,42,-14
17.492416977882385,false,0.043945312,1.0126953,0.6191406,0.4590449,0.18829325,1.0126953,0.6191406,-12,-16,-2,18,54,5,13,22
17.522536993026733,false,0.118652344,1.081543,0.47314453,0.4760685,0.1867043,1.081543,0.47314453,-6,-5,-3,-12,-38,4,-26,-4
17.524369955062866,false,0.2241211,1.1669922,0.29541016,0.49668777,0.18279427,1.1669922,0.29541016,-1,6,6,10,-18,1,0,-3
17.552340030670166,false,0.5625,0.9370117,0.7167969,0.5220682,0.17143905,0.9370117,0.7167969,11,11,4,-2,-41,6,0,3
17.554826974868774,false,-0.94091797,-1.1650391,0.37402344,0.5415443,0.15453514,-1.1650391,0.37402344,45,-30,0,-4,35,-9,-3,3
17.583760023117065,false,-1.1030273,0.71240234,1.3608398,0.5384533,0.15887485,0.71240234,1.3608398,-91,-44,1,5,3,-10,-4,5
17.612376928329468,false,0.0625,0.4946289,0.93359375,0.5522827,0.14550138,0.4946289,0.93359375,49,59,-3,-8,-3,-5,-9,-7
17.614832043647766,false,0.61572266,0.42529297,0.53027344,0.54606247,0.1469065,0.42529297,0.53027344,20,12,1,0,-8,-8,1,5
17.643003940582275,false,0.29882812,1.0673828,0.34228516,0.5371525,0.16057816,1.0673828,0.34228516,-12,-6,4,8,11,15,-2,6
17.67246699333191,false,0.104003906,1.1000977,0.2607422,0.5306829,0.16918379,1.1000977,0.2607422,3,-8,-3,8,6,1,20,5
17.67486798763275,false,0.3125,0.9814453,0.33251953,0.52298665,0.16851045,0.9814453,0.33251953,6,4,8,27,-12,11,7,13
17.70300793647766,false,0.23730469,0.9301758,0.4609375,0.51494396,0.16918628,0.9301758,0.4609375,8,9,2,13,16,8,4,-13
17.73239302635193,false,0.2133789,1.1914062,0.390625,0.50696677,0.17572325,1.1914062,0.390625,5,55,28,-16,-13,-9,-60,-25
17.735010981559753,false,0.3569336,1.3208008,0.35302734,0.50263053,0.18176486,1.3208008,0.35302734,0,-22,-20,15,-3,4,18,13
17.762974977493286,false,0.45654297,1.3911133,0.23779297,0.50334084,0.18596818,1.3911133,0.23779297,1,-10,-18,-8,-26,-7,-6,-1
17.79232096672058,false,0.5571289,1.4711914,0.1977539,0.5115397,0.18536523,1.4711914,0.1977539,13,-7,-15,-16,-16,9,71,4
17.794845938682556,false,0.58251953,1.3041992,0.21386719,0.52941185,0.17791511,1.3041992,0.21386719,-8,-3,13,-8,13,15,36,2
17.8230299949646,false,0.62597656,-0.35205078,-0.296875,0.5571929,0.15692222,-0.35205078,-0.296875,-21,20,-2,-7,-23,92,-21,-11
17.8524329662323,false,-1.1137695,0.31689453,0.77441406,0.5530255,0.17058893,0.31689453,0.77441406,120,-116,-4,-3,17,-75,-13,2
17.882344007492065,false,-1.1220703,0.71777344,1.015625,0.55149245,0.16399515,0.71777344,1.015625,-24,127,11,15,-48,-48,-17,-7
17.88450801372528,false,0.53515625,1.0317383,0.89453125,0.54508185,0.15996635,1.0317383,0.89453125,45,13,-12,-21,-26,22,-11,5
17.912364959716797,false,0.5004883,1.1489258,0.33203125,0.5280625,0.17180952,1.1489258,0.33203125,-47,-33,17,1,-81,-49,-21,-2
17.94194197654724,false,0.1928711,1.668457,-0.036621094,0.5180047,0.17901587,1.668457,-0.036621094,-21,5,0,10,12,16,2,-3
17.943655014038086,false,0.23242188,1.1245117,0.037109375,0.5176345,0.16607517,1.1245117,0.037109375,-50,-18,-1,6,23,1,-28,-28
17.972355008125305,false,0.29882812,0.5317383,0.3671875,0.51660115,0.15069568,0.5317383,0.3671875,14,-4,-1,15,26,2,7,11
18.001889944076538,false,0.38476562,0.46289062,0.49609375,0.51324236,0.14294371,0.46289062,0.49609375,-7,2,3,12,40,3,-22,-12
18.00378394126892,false,0.35351562,0.7553711,0.3930664,0.5072046,0.14508125,0.7553711,0.3930664,-12,-17,-3,5,7,-10,-15,-1
18.032331943511963,false,0.49951172,0.9033203,0.2841797,0.50310564,0.14892367,0.9033203,0.2841797,34,45,-1,15,-7,-1,22,48
18.062009930610657,false,0.5942383,1.0834961,0.27246094,0.5025765,0.1543619,1.0834961,0.27246094,-17,0,-4,-5,25,2,19,-56
18.06385600566864,false,0.54345703,1.2568359,0.24951172,0.50877815,0.16015281,1.2568359,0.24951172,-14,-13,1,-13,4,-5,14,24
18.09238600730896,false,0.5361328,1.2885742,0.26953125,0.52172476,0.1641834,1.2885742,0.26953125,-5,14,5,1,2,4,-3,-2
18.122342944145203,false,0.55566406,1.206543,0.42041016,0.5417399,0.16662347,1.206543,0.42041016,-2,-12,-9,-20,-15,9,-1,-4
18.124377012252808,false,0.005859375,-1.3432617,1.1123047,0.5613407,0.15441903,-1.3432617,1.1123047,-63,-115,-1,-12,10,2,-7,-4
18.1523540019989,false,-1.9057617,0.7167969,0.9082031,0.54778963,0.17126437,0.7167969,0.9082031,11,36,-3,-8,16,-31,-12,3
18.212597966194153,false,-0.15771484,1.2788086,0.9921875,0.54789174,0.1685727,1.2788086,0.9921875,-1,-21,-5,-7,1,-16,1,7
18.214342951774597,false,0.5463867,0.5180664,0.88623047,0.5391707,0.15966386,0.5180664,0.88623047,-2,28,6,-5,15,20,-4,8
18.24244201183319,false,-0.01171875,1.612793,0.017578125,0.50444746,0.17211637,1.612793,0.017578125,29,8,-1,-3,32,16,41,11
18.244966983795166,false,0.4013672,1.7275391,-0.06640625,0.4953641,0.16656588,1.7275391,-0.06640625,-35,23,-9,-9,-112,-3,-14,2
18.273036003112793,false,0.5527344,1.2880859,0.110839844,0.49811077,0.14331137,1.2880859,0.110839844,-20,-16,2,-4,-3,-8,-21,8
18.302387952804565,false,0.6225586,0.74072266,0.27294922,0.50629175,0.111268215,0.74072266,0.27294922,3,-26,-1,7,-6,11,7,-5
18.304953932762146,false,0.50634766,0.39208984,0.44677734,0.51342463,0.08239696,0.39208984,0.44677734,14,8,10,10,6,-11,-11,-6
18.333124041557312,false,0.3544922,0.25146484,0.59033203,0.5204294,0.056577694,0.25146484,0.59033203,37,13,3,5,21,-6,-21,-6
18.362398982048035,false,0.39453125,0.32226562,0.5161133,0.5260058,0.03308136,0.32226562,0.5161133,-15,21,-2,-7,12,-12,-13,18
18.39201593399048,false,0.36035156,0.3178711,0.47265625,0.5312193,0.011840136,0.3178711,0.47265625,-52,-7,-6,2,25,-1,-3,-14
18.393847942352295,false,0.32910156,0.21679688,0.53564453,0.53659946,-0.0065304986,0.21679688,0.53564453,24,-9,5,-10,31,-18,-12,-10
18.422315001487732,false,0.3046875,0.2163086,0.61279297,0.5418805,-0.01611359,0.2163086,0.61279297,10,2,-6,3,17,7,-16,-3
18.42502498626709,false,0.21142578,0.25048828,0.44580078,0.54931283,-0.015746968,0.25048828,0.44580078,7,-12,9,12,-44,6,12,4
18.453138947486877,false,0.15966797,0.17333984,0.3725586,0.5596146,-0.0076291664,0.17333984,0.3725586,1,8,-2,-18,-25,2,43,22
18.48328399658203,false,0.06640625,0.09375,0.51660156,0.5710349,0.009399249,0.09375,0.51660156,15,6,2,4,33,31,93,17
18.485111951828003,false,-0.023925781,0.05517578,0.5722656,0.5828171,0.03503372,0.05517578,0.5722656,2,-7,1,5,-15,-8,-63,-23
18.513240933418274,false,-0.013671875,0.08251953,0.7421875,0.592569,0.06658696,0.08251953,0.7421875,-1,-3,-6,-4,-10,-3,-1,-1
18.54254400730133,false,-0.08642578,0.7529297,1.3081055,0.5973347,0.0957005,0.7529297,1.3081055,-19,6,-3,-9,33,-40,-2,2
18.572181940078735,false,-1.3886719,2.2011719,2.8359375,0.6085823,0.10321058,2.2011719,2.8359375,18,32,-1,0,-126,-44,-8,1
18.57382297515869,false,-0.30273438,-0.16064453,2.1523438,0.6118145,0.08746311,-0.16064453,2.1523438,-28,-9,-12,-49,41,18,-20,2
18.602306008338928,false,-0.015625,0.53515625,1.4731445,0.6074816,0.07385238,0.53515625,1.4731445,-9,-19,-8,-49,-15,24,-4,-11
18.631881952285767,false,0.22802734,0.29345703,1.0136719,0.60436976,0.054992642,0.29345703,1.0136719,4,-9,-6,39,17,14,-17,-6
18.633731961250305,false,0.23486328,0.28027344,0.4873047,0.6017918,0.04333389,0.28027344,0.4873047,12,-2,-1,12,15,26,13,-4
18.66236400604248,false,0.11669922,0.32617188,0.66064453,0.6019316,0.035156418,0.32617188,0.66064453,-11,-24,-9,-23,-41,-3,35,-4
18.691934943199158,false,-0.111816406,0.52197266,0.9667969,0.60544443,0.030577384,0.52197266,0.9667969,-3,4,4,14,31,-12,-1,-16
18.69378101825714,false,0.09863281,0.45263672,0.7753906,0.6058701,0.018492863,0.45263672,0.7753906,8,16,-1,-3,4,-1,-33,-6
18.72235894203186,false,0.1850586,0.20361328,0.6191406,0.60514826,0.0017699748,0.20361328,0.6191406,-9,-13,-7,-15,17,4,-41,1
18.75205397605896,false,0.21142578,0.017089844,0.47753906,0.6056004,-0.010315105,0.017089844,0.47753906,7,4,6,16,18,5,-11,1
18.75380802154541,false,0.14501953,0.0078125,0.33935547,0.60791105,-0.015747093,0.0078125,0.33935547,12,0,0,1,-11,-18,-25,-1
18.782106041908264,false,0.13671875,-0.030761719,0.2758789,0.6105675,-0.015319117,-0.030761719,0.2758789,9,9,5,-8,-10,-37,55,-4
18.78437602519989,false,0.115234375,-0.03515625,0.2631836,0.6113203,-0.00933826,-0.03515625,0.2631836,2,12,-6,-2,-3,17,-18,-33
18.812960028648376,false,0.07763672,-0.025878906,0.30859375,0.61162966,0.005554166,-0.025878906,0.30859375,11,12,1,-19,13,-18,-23,-4
18.815606951713562,false,0.032226562,0.061035156,0.39013672,0.6114887,0.028868565,0.061035156,0.39013672,-6,-9,-3,4,-2,6,-15,1
18.8436279296875,false,0.009277344,0.05859375,0.33544922,0.60924655,0.05865417,0.05859375,0.33544922,-1,-3,2,3,-4,-9,10,-7
18.873008966445923,false,-0.46777344,1.0332031,3.958496,0.60694474,0.085817,1.0332031,3.958496,-12,-3,-2,-7,-14,-58,-35,1
18.875600934028625,false,-1.0991211,1.0776367,2.0668945,0.59933764,0.083858445,1.0776367,2.0668945,7,-12,-2,-4,-36,60,3,2
18.90371596813202,false,-0.15966797,0.9165039,1.9980469,0.5964152,0.08819279,0.9165039,1.9980469,-1,-14,-5,26,19,12,-6,4
18.933040976524353,false,-0.12646484,0.51464844,1.4863281,0.59294283,0.084470704,0.51464844,1.4863281,8,34,7,39,17,14,-10,7
18.935747981071472,false,0.079589844,0.1538086,0.95166016,0.59032196,0.07305784,0.1538086,0.95166016,-2,-14,-12,-72,-29,-14,-14,-3
18.963482975959778,false,0.26660156,0.21142578,0.51416016,0.58441776,0.06317205,0.21142578,0.51416016,-9,33,10,24,44,5,-11,-5
18.993160009384155,false,0.22802734,0.28173828,0.43701172,0.5815932,0.058470592,0.28173828,0.43701172,-18,-11,-2,14,-43,19,-21,-4
18.995666027069092,false,-0.13769531,0.45214844,0.8198242,0.5850096,0.05566288,0.45214844,0.8198242,23,-4,-3,-18,-18,8,75,30
19.023733019828796,false,0.0146484375,0.38916016,0.78564453,0.58647,0.046385393,0.38916016,0.78564453,-7,-7,4,-8,-13,-8,-46,-12
19.053025007247925,false,0.2734375,0.11230469,0.6401367,0.5856783,0.031249195,0.11230469,0.6401367,-6,-1,5,4,20,-6,-57,-38
19.05562698841095,false,0.3305664,-0.045410156,0.4345703,0.5843489,0.021606384,-0.045410156,0.4345703,-7,-17,5,2,41,-4,-31,13
19.083722949028015,false,0.3154297,0.04345703,0.2397461,0.5840437,0.02294915,0.04345703,0.2397461,23,30,18,24,-9,11,-5,22
19.113222002983093,false,0.27490234,0.12548828,0.24072266,0.5856816,0.031554542,0.12548828,0.24072266,-13,-32,-10,-10,5,-17,-27,-10
19.11575996875763,false,0.16699219,0.1508789,0.41503906,0.58752555,0.04791269,0.1508789,0.41503906,-20,-9,-8,-10,3,-15,-14,-29
19.143759965896606,false,0.0087890625,0.15478516,0.5620117,0.5893569,0.07269304,0.15478516,0.5620117,0,-11,-12,8,-3,-11,8,2
19.172966957092285,false,-0.27441406,0.4711914,3.8642578,0.5913672,0.09564169,0.4711914,3.8642578,7,-5,-8,-18,-11,-33,13,-38
19.175671935081482,false,-1.8891602,1.7216797,2.5039062,0.5919136,0.08990397,1.7216797,2.5039062,18,30,0,-11,-96,72,0,38
19.203863978385925,false,-0.064941406,0.2133789,1.706543,0.59009194,0.08636534,0.2133789,1.706543,-4,-6,-2,12,52,24,16,1
19.233191967010498,false,-0.06298828,0.4428711,0.7578125,0.5879454,0.08282383,0.4428711,0.7578125,2,-5,-13,0,5,-18,17,26
19.235697031021118,false,0.6801758,-0.04638672,0.66796875,0.58616114,0.06677013,-0.04638672,0.66796875,9,0,0,-5,-16,18,7,7
19.26346004009247,false,0.21826172,-0.091796875,0.6982422,0.5799561,0.06488038,-0.091796875,0.6982422,-12,-6,-13,-12,26,-31,10,-2
19.29299795627594,false,-0.08691406,0.43945312,0.52734375,0.5729931,0.0766595,0.43945312,0.52734375,-6,1,9,-5,21,8,5,-4
19.29568099975586,false,-0.015625,0.66064453,0.5419922,0.5698064,0.091244705,0.66064453,0.5419922,-14,11,1,8,0,-1,6,2
19.32357394695282,false,0.041503906,0.6586914,0.6958008,0.56860316,0.10626214,0.6586914,0.6958008,-3,-14,-21,-39,-17,-15,-8,-1
19.35307800769806,false,0.32861328,0.8876953,1.1611328,0.56665075,0.12127693,0.8876953,1.1611328,-2,-8,-18,-8,-22,-11,2,5
19.355463981628418,false,-0.35107422,0.5961914,1.3764648,0.5681802,0.13238616,0.5961914,1.3764648,-3,-4,16,10,12,1,13,-2
19.383507013320923,false,0.09375,0.4033203,0.50439453,0.56664175,0.13647252,0.4033203,0.50439453,-2,-15,2,2,63,18,63,-1
19.413131952285767,false,0.5605469,0.38134766,1.4287109,0.5568747,0.14239244,0.38134766,1.4287109,3,6,6,13,-42,-5,-21,-2
19.41548800468445,false,-0.2290039,0.6328125,0.15332031,0.54270846,0.15844254,0.6328125,0.15332031,3,13,1,-3,95,-9,-12,-2
19.47239601612091,false,0.81396484,1.0322266,0.89746094,0.53306395,0.16936713,1.0322266,0.89746094,-4,-2,9,29,-75,-7,-5,0
19.50288701057434,false,-0.028320312,1.1811523,-0.24511719,0.52587646,0.1757194,1.1811523,-0.24511719,15,8,-4,5,-5,31,35,5
19.50471794605255,false,0.5800781,1.1826172,0.83251953,0.5241431,0.17388026,1.1826172,0.83251953,6,-1,-1,-2,13,4,-2,-12
19.533020973205566,false,0.12060547,1.3427734,0.3671875,0.5342897,0.16552362,1.3427734,0.3671875,-6,8,0,-10,15,-40,-7,3
19.535616040229797,false,1.3359375,1.2817383,0.28466797,0.5529555,0.14446421,1.2817383,0.28466797,-4,-12,-5,-5,27,16,-8,0
19.563503980636597,false,-0.33544922,0.7294922,0.10888672,0.5725477,0.12804659,0.7294922,0.10888672,-10,-11,2,2,-3,2,-14,-4
19.59302294254303,false,0.85839844,-0.1586914,0.7324219,0.5964196,0.10247528,-0.1586914,0.7324219,5,21,4,-5,-36,40,-5,-6
19.595654010772705,false,-0.59375,0.10205078,0.52685547,0.59457517,0.10467013,0.10205078,0.52685547,57,-52,-2,-2,-17,-35,-5,-1
19.62363302707672,false,-0.4794922,0.6484375,0.8901367,0.59331316,0.1094953,0.6484375,0.8901367,-128,0,1,0,20,-13,-9,12
19.65300703048706,false,0.5488281,1.0795898,0.7573242,0.58765584,0.10595872,1.0795898,0.7573242,56,-3,-7,-9,-15,-10,-16,-3
19.65558898448944,false,0.9741211,1.0546875,0.46728516,0.5806211,0.10125623,1.0546875,0.46728516,33,30,7,7,27,-19,-5,-1
19.683606028556824,false,0.6088867,1.2211914,0.25634766,0.57872546,0.09686114,1.2211914,0.25634766,9,23,-2,-15,-61,-1,-19,-10
19.713050961494446,false,0.2841797,0.8041992,0.36914062,0.5798604,0.08056159,0.8041992,0.36914062,16,15,2,0,-2,30,83,26
19.715777039527893,false,0.4038086,0.421875,0.5258789,0.57724255,0.06127633,0.421875,0.5258789,-10,-23,1,7,-10,-6,-7,17
19.743744015693665,false,0.5151367,0.47802734,0.47705078,0.57261544,0.046324357,0.47802734,0.47705078,-4,-4,-3,-7,80,-7,-6,-7
19.773007035255432,false,0.5600586,0.59814453,0.3149414,0.5675644,0.034728914,0.59814453,0.3149414,-2,-4,-13,6,16,-9,-26,-2
19.77564299106598,false,0.5957031,0.58984375,0.32128906,0.56433094,0.023132319,0.58984375,0.32128906,13,46,4,-5,-8,1,-17,-18
19.803563952445984,false,0.5649414,0.52197266,0.42773438,0.5634717,0.016723488,0.52197266,0.42773438,5,4,4,0,-38,-23,-54,34
19.833001017570496,false,0.59716797,0.6225586,0.31689453,0.56560856,0.020751797,0.6225586,0.31689453,5,0,3,9,41,-10,-26,-6
19.86211597919464,false,0.6845703,0.87060547,0.14746094,0.5713333,0.035765547,0.87060547,0.14746094,2,25,12,-12,-42,-7,-39,-40
19.86425793170929,false,0.70947266,0.9863281,0.13378906,0.5864032,0.053159576,0.9863281,0.13378906,19,51,1,26,-27,6,22,6
19.89303696155548,false,0.5493164,0.7597656,0.2861328,0.607055,0.07067864,0.7597656,0.2861328,-14,-31,-6,-12,19,5,23,-2
19.895743012428284,false,0.40820312,0.51220703,0.51416016,0.6291943,0.09057371,0.51220703,0.51416016,-7,-14,-5,-1,2,11,16,-12
19.923761010169983,false,-0.05908203,-0.5605469,1.4365234,0.6479777,0.10485314,-0.5605469,1.4365234,-12,-3,-4,-4,-14,1,13,-7
19.952980041503906,false,-1.3618164,1.1225586,1.3037109,0.64196026,0.1208482,1.1225586,1.3037109,4,-33,-3,-6,13,-14,6,-8
19.955598950386047,false,0.24902344,0.50878906,1.2226562,0.6423947,0.11492915,0.50878906,1.2226562,-12,-5,9,-7,-7,2,1,-1
19.983610033988953,false,0.5786133,0.5419922,0.9848633,0.63114494,0.10564857,0.5419922,0.9848633,-1,0,-17,-17,-13,13,8,2
20.01302993297577,false,0.26367188,0.46142578,0.94140625,0.61858815,0.10064646,0.46142578,0.94140625,0,-16,0,6,-4,-5,7,0
20.042093992233276,false,0.115722656,0.72998047,0.6723633,0.60595614,0.10583481,0.72998047,0.6723633,-2,10,-1,-3,-31,5,1,-4
20.044508934020996,false,0.28759766,0.8691406,0.44677734,0.59148604,0.111754306,0.8691406,0.44677734,1,-9,3,13,42,55,98,15
20.073047041893005,false,0.5102539,0.79589844,0.49902344,0.5782927,0.10955519,0.79589844,0.49902344,-9,-7,-2,8,49,-6,-54,-7
20.075664043426514,false,0.5332031,0.9375,0.48242188,0.5618813,0.10705407,0.9375,0.48242188,4,-3,4,-9,-51,1,-1,1
20.103641986846924,false,0.63427734,1.105957,0.26953125,0.54862773,0.10290203,1.105957,0.26953125,-16,-20,1,38,-49,-15,-7,-4
20.133139967918396,false,0.8725586,1.0512695,0.096191406,0.54080874,0.09929983,1.0512695,0.096191406,12,19,3,-8,28,29,70,34
20.136759042739868,false,0.7871094,1.0922852,0.1850586,0.5391049,0.10558717,1.0922852,0.1850586,-11,-37,-10,6,17,-21,-41,12
20.16410493850708,false,0.64990234,1.3466797,0.17578125,0.5446056,0.125974,1.3466797,0.17578125,9,24,-2,-10,-6,-24,-14,-21
20.193722009658813,false,0.58740234,1.5341797,0.1538086,0.558299,0.14984411,1.5341797,0.1538086,-15,-24,3,-3,16,-2,-29,7
20.19563603401184,false,0.55078125,1.3867188,0.33935547,0.5764708,0.17236142,1.3867188,0.33935547,-4,-2,0,-9,1,-8,-18,-13
20.223899960517883,false,0.14160156,1.1889648,1.0581055,0.59497327,0.19628991,1.1889648,1.0581055,3,7,-2,-2,-14,-10,-2,-15
20.253003001213074,false,-1.9545898,1.9248047,1.5810547,0.6027686,0.1845048,1.9248047,1.5810547,14,54,6,10,-94,-11,-19,-18
20.255627989768982,false,-0.25195312,1.0205078,0.53125,0.5824492,0.17498499,1.0205078,0.53125,-126,-128,-7,-11,84,2,-2,-8
20.283607959747314,false,0.5439453,0.7260742,0.7602539,0.5858159,0.17645279,0.7260742,0.7602539,67,127,-15,-11,-72,3,8,9
20.31308102607727,false,0.21142578,0.9404297,0.44628906,0.58257514,0.17968583,0.9404297,0.44628906,13,78,41,5,-17,-1,-3,4
20.315672039985657,false,0.8261719,1.2958984,0.08496094,0.5706171,0.17767315,1.2958984,0.08496094,43,9,-9,-9,8,-2,-6,-4
20.344231009483337,false,0.05126953,1.019043,0.5488281,0.56913626,0.17980434,1.019043,0.5488281,-63,26,-11,-2,65,10,70,10
20.373000979423523,false,0.16064453,0.79541016,0.77490234,0.56578755,0.17785382,0.79541016,0.77490234,23,-37,-20,-14,91,-3,-21,2
20.375640988349915,false,0.8828125,1.1459961,0.3779297,0.556506,0.1745566,1.1459961,0.3779297,12,33,19,38,17,-9,-37,-23
20.40365493297577,false,0.8564453,1.2363281,0.25439453,0.55560523,0.17370674,1.2363281,0.25439453,31,-29,-5,-13,-28,2,9,4
20.43312096595764,false,0.7055664,1.1601562,0.15917969,0.56602335,0.17736295,1.1601562,0.15917969,-18,1,-4,-21,-23,-5,-39,-18
20.43548095226288,false,0.4892578,1.137207,0.30126953,0.5884918,0.18810742,1.137207,0.30126953,-17,-33,-3,0,11,5,3,13
20.463497042655945,false,-0.24316406,1.4692383,1.7416992,0.6175703,0.19733195,1.4692383,1.7416992,17,10,5,-4,-22,-5,7,2
20.493029952049255,false,-1.9467773,0.9707031,1.715332,0.63972473,0.17566337,0.9707031,1.715332,-42,-50,25,-3,-95,-8,-2,-8
20.49591100215912,false,-0.0107421875,0.9243164,0.7363281,0.62534994,0.18004903,0.9243164,0.7363281,26,5,-42,-54,52,-18,-3,9
20.52387297153473,false,0.9555664,1.2055664,0.47851562,0.63158876,0.17559731,1.2055664,0.47851562,-21,28,11,41,-32,3,-5,-11
20.55299699306488,false,0.66064453,0.88378906,0.25097656,0.63909894,0.1516113,0.88378906,0.25097656,21,12,8,13,1,23,12,7
20.555601954460144,false,0.5913086,0.5732422,0.5102539,0.6412218,0.118710876,0.5732422,0.5102539,-20,-7,-9,-2,12,-2,-1,-4
20.583637952804565,false,0.13330078,0.22460938,0.89208984,0.64166135,0.093688786,0.22460938,0.89208984,-26,-43,-8,-1,36,-5,-21,-24
20.61302101612091,false,0.63623047,0.60302734,0.49414062,0.6348819,0.07281428,0.60302734,0.49414062,7,-8,-9,-9,29,1,-12,5
20.615584015846252,false,1.2314453,0.9042969,-0.014160156,0.6289672,0.052795403,0.9042969,-0.014160156,113,88,-3,-22,-29,-13,-21,-4
20.644003987312317,false,0.8803711,0.6230469,0.022949219,0.6409944,0.037536807,0.6230469,0.022949219,-128,14,4,-1,4,4,-10,-1
20.672981023788452,false,0.4609375,0.60253906,-0.15283203,0.664966,0.03570492,0.60253906,-0.15283203,42,-36,-5,13,-2,-2,17,15
20.676053047180176,false,0.38085938,0.83447266,0.072753906,0.69512033,0.039428197,0.83447266,0.072753906,37,-13,-1,5,3,4,11,4
20.704067945480347,false,0.087890625,1.1591797,1.0688477,0.7281374,0.038390476,1.1591797,1.0688477,7,6,3,-2,-27,-1,13,-2
20.733001947402954,false,-1.6411133,1.0146484,2.1889648,0.75184673,-0.005554315,1.0146484,2.1889648,-78,-35,-7,-8,-28,-3,5,-22
20.735463976860046,false,-0.044433594,0.2524414,0.8359375,0.7434814,-0.035462003,0.2524414,0.8359375,10,8,-1,16,42,-1,2,40
20.763602018356323,false,1.1860352,0.5131836,0.39111328,0.74566346,-0.065490454,0.5131836,0.39111328,21,28,23,-24,-69,7,3,-17
20.793136954307556,false,0.87646484,0.31054688,0.25585938,0.7464362,-0.09893484,0.31054688,0.25585938,2,-9,5,16,12,-2,1,-5
20.795666933059692,false,0.7553711,0.37695312,0.5722656,0.74272555,-0.13421428,0.37695312,0.5722656,7,-12,-16,0,-54,-11,-18,-8
20.82364797592163,false,0.31591797,0.20166016,0.9482422,0.73979354,-0.16515811,0.20166016,0.9482422,-11,-23,7,15,-6,42,91,-47
20.85298204421997,false,0.79345703,0.49853516,0.5805664,0.7318822,-0.18933356,0.49853516,0.5805664,-7,-12,-9,-7,30,-5,-10,34
20.85564696788788,false,1.105957,0.63964844,0.19970703,0.7310627,-0.2097121,0.63964844,0.19970703,22,-17,-3,2,31,-13,-31,-6
20.883661031723022,false,0.9916992,0.21142578,0.18652344,0.74746066,-0.22083233,0.21142578,0.18652344,-49,-1,-1,12,24,2,1,-24
20.913007974624634,false,0.5449219,0.0234375,0.3725586,0.7688955,-0.22222167,0.0234375,0.3725586,5,-22,-6,-2,39,5,9,38
20.915539979934692,false,0.2705078,0.43164062,0.52978516,0.787297,-0.22241338,0.43164062,0.52978516,6,7,-18,-27,9,-11,-21,5
20.943740963935852,false,-0.1928711,-0.80371094,3.364746,0.7940059,-0.25463852,-0.80371094,3.364746,-77,1,-3,-10,-37,-21,1,4
20.972970962524414,false,-1.0327148,0.23876953,1.1245117,0.7704405,-0.29833743,0.23876953,1.1245117,127,-20,4,8,42,9,-2,34
20.975669026374817,false,1.2387695,0.03955078,0.46240234,0.7438558,-0.34192827,0.03955078,0.46240234,-43,42,-9,14,-25,7,-11,8
21.003636956214905,false,0.7055664,-0.0073242188,0.09082031,0.73259884,-0.3691986,-0.0073242188,0.09082031,2,17,31,14,21,10,-1,-29
21.033071041107178,false,0.62353516,-0.08886719,0.47070312,0.72686934,-0.3861703,-0.08886719,0.47070312,15,12,10,18,1,-4,-7,-2
21.035486936569214,false,0.27392578,-0.14648438,0.70458984,0.7270889,-0.3944578,-0.14648438,0.70458984,-17,-48,-8,8,50,-1,-32,12
21.06347095966339,false,0.234375,0.19970703,0.25341797,0.72454244,-0.40002117,0.19970703,0.25341797,6,36,9,-10,0,22,66,20
21.09303092956543,false,0.7270508,0.32373047,-0.10644531,0.71954155,-0.4082631,0.32373047,-0.10644531,15,36,-2,-15,-39,-21,-29,-24
21.121986985206604,false,0.87402344,0.15527344,-0.09472656,0.7246785,-0.41833964,0.15527344,-0.09472656,-24,-26,-8,-8,-5,21,34,-17
21.124531984329224,false,0.5854492,-0.20800781,0.08886719,0.73155135,-0.42821327,-0.20800781,0.08886719,0,4,2,2,-17,-29,-18,-21
21.15298593044281,false,0.41796875,-0.4560547,0.3623047,0.74118817,-0.43278697,-0.4560547,0.3623047,-5,-11,-8,-5,0,-8,-15,1
21.182045936584473,false,0.07421875,-1.2485352,1.3193359,0.75285625,-0.43645522,-1.2485352,1.3193359,-11,-3,-10,-7,-42,-2,-3,-3
21.18444001674652,false,-0.8413086,-0.37158203,1.9345703,0.745305,-0.44897744,-0.37158203,1.9345703,0,34,-9,-4,60,-3,-9,-12
21.21290898323059,false,0.5307617,-0.6582031,0.7319336,0.7261905,-0.4631921,-0.6582031,0.7319336,20,-91,5,-17,-23,-2,-2,22
21.241948008537292,false,0.87060547,-0.40722656,0.21191406,0.7180757,-0.47106743,-0.40722656,0.21191406,-12,25,-3,-16,-92,-7,-2,-4
21.24426794052124,false,0.66503906,-0.4736328,0.49365234,0.7198653,-0.46743944,-0.4736328,0.49365234,-2,13,-3,1,9,-9,-9,-10
21.273056030273438,false,0.4140625,-0.44189453,0.70654297,0.7205594,-0.46495184,-0.44189453,0.70654297,-2,-11,-14,9,12,-10,-76,25
21.301841974258423,false,0.38134766,-0.16308594,0.56640625,0.71374416,-0.46649107,-0.16308594,0.56640625,-7,-8,0,-19,59,-5,8,-2
21.30425202846527,false,0.78222656,0.11425781,0.05126953,0.6981101,-0.47441947,0.11425781,0.05126953,14,15,5,-14,-53,0,-2,-8
21.333039045333862,false,1.1191406,-0.025878906,-0.08203125,0.688518,-0.4849105,-0.025878906,-0.08203125,-20,-16,18,31,51,37,112,-25
21.361989974975586,false,0.8666992,-0.31054688,0.0703125,0.69155425,-0.48721892,-0.31054688,0.0703125,2,-19,0,8,-9,9,57,42
21.364212036132812,false,0.5180664,-0.43603516,0.13378906,0.70628315,-0.4757585,-0.43603516,0.13378906,-1,4,-7,13,-11,-14,-23,-1
21.393221020698547,false,0.5390625,-0.38330078,0.28857422,0.725108,-0.45886886,-0.38330078,0.28857422,-3,8,-4,-6,-1,-3,-20,-18
21.421949982643127,false,0.45361328,-1.0751953,1.5400391,0.73729044,-0.4495763,-1.0751953,1.5400391,-4,3,-16,-7,1,-2,-3,-6
21.424422025680542,false,-0.7373047,-0.49658203,1.9785156,0.72722477,-0.4581852,-0.49658203,1.9785156,8,32,-6,8,-13,0,-27,-12
21.453014969825745,false,0.6269531,-0.6010742,0.79003906,0.7051209,-0.46702895,-0.6010742,0.79003906,-5,-65,4,-28,-93,-17,-15,10
21.48240602016449,false,0.80810547,-0.080566406,0.016601562,0.6935945,-0.4703308,-0.080566406,0.016601562,-2,39,7,2,1,11,-6,-13
21.484524965286255,false,0.71875,-0.41992188,0.32617188,0.69297814,-0.46642053,-0.41992188,0.32617188,7,9,3,11,25,23,6,5
21.513062953948975,false,0.39111328,-0.44921875,0.74853516,0.6896739,-0.4640346,-0.44921875,0.74853516,3,3,-9,3,59,-7,-7,40
21.542688012123108,false,0.49609375,-0.18115234,0.45703125,0.6770432,-0.46495223,-0.18115234,0.45703125,23,48,20,-2,20,-11,-10,-17
21.544818997383118,false,0.92333984,0.064941406,-0.0048828125,0.66231626,-0.46670958,0.064941406,-0.0048828125,-6,-21,-6,12,44,9,27,4
21.573032021522522,false,1.1254883,0.018554688,-0.2397461,0.6522056,-0.4694098,0.018554688,-0.2397461,-8,-2,1,-6,-18,-1,50,49
21.602115988731384,false,1.0209961,-0.11328125,-0.15966797,0.64984256,-0.46777433,-0.11328125,-0.15966797,12,4,-16,0,1,-4,5,-27
21.604545950889587,false,0.69189453,-0.1850586,-0.083984375,0.6596417,-0.45420554,-0.1850586,-0.083984375,-13,-11,5,-3,-4,-8,-22,-10
21.63306701183319,false,0.65185547,-0.06591797,-0.04638672,0.6789384,-0.43150795,-0.06591797,-0.04638672,-11,-5,0,1,-17,-3,-25,-23
21.662994980812073,false,0.6333008,-0.013671875,0.041015625,0.69437677,-0.41295186,-0.013671875,0.041015625,0,2,4,3,3,-1,-22,-2
21.665717005729675,false,-0.14111328,0.018066406,2.5742188,0.6928651,-0.4246179,0.018066406,2.5742188,3,-20,-2,-7,-60,-5,-4,-19
21.693169951438904,false,-0.60839844,-0.40771484,1.3857422,0.6735144,-0.42949897,-0.40771484,1.3857422,16,-17,-2,-2,31,-1,-7,21
21.7218199968338,false,0.72558594,-0.1459961,0.7661133,0.66153556,-0.42503306,-0.1459961,0.7661133,-33,25,4,-2,1,2,-7,-5
21.752017974853516,false,0.38720703,-0.25195312,0.5805664,0.659244,-0.41089073,-0.25195312,0.5805664,-1,-6,16,0,-4,-3,-3,-10
21.753782987594604,false,0.49560547,-0.09814453,0.51904297,0.6549499,-0.39336056,-0.09814453,0.51904297,7,0,-4,-1,6,-2,-8,-4
21.78195095062256,false,0.30371094,0.08984375,0.5551758,0.6533664,-0.36913216,0.08984375,0.5551758,-4,0,6,8,6,-3,-2,-5
21.784538984298706,false,0.107421875,0.20263672,0.55615234,0.6498269,-0.3444748,0.20263672,0.55615234,-4,-3,-5,-3,15,-1,-3,-3
21.81301999092102,false,0.28320312,0.33789062,0.5131836,0.64244735,-0.31994194,0.33789062,0.5131836,3,-5,-9,-7,-4,-14,-9,-3
21.87260401248932,false,0.43896484,0.375,0.43017578,0.635117,-0.29229054,0.375,0.43017578,0,-2,-8,-6,-9,5,-7,5
21.874051928520203,false,0.6230469,0.28710938,0.50878906,0.6299141,-0.25950924,0.28710938,0.50878906,1,0,-3,-1,-20,-4,5,-4
21.876544952392578,false,0.78027344,0.016113281,0.72998047,0.62645984,-0.22143377,0.016113281,0.72998047,-3,-2,-5,-4,9,4,3,2
21.902289032936096,false,0.67822266,-0.033691406,0.84277344,0.6213221,-0.17473921,-0.033691406,0.84277344,3,0,-2,2,1,13,16,3
21.904222011566162,false,0.56884766,0.32714844,0.85595703,0.61191905,-0.11803825,0.32714844,0.85595703,-1,-13,2,13,18,-1,1,-1
21.93302094936371,false,0.55078125,0.71875,0.76953125,0.59773135,-0.060609333,0.71875,0.76953125,1,4,2,25,25,4,14,-1
21.961953043937683,false,0.6567383,0.8564453,0.69189453,0.57764786,-0.011352758,0.8564453,0.69189453,-2,13,6,10,41,10,7,2
21.964208006858826,false,0.6352539,0.6665039,0.6376953,0.55406255,0.028441634,0.6665039,0.6376953,-4,-1,-2,-13,0,-7,-44,-12
21.99323797225952,false,0.40185547,0.63378906,0.52001953,0.5279512,0.06921349,0.63378906,0.52001953,-4,-4,1,-6,-67,-13,-17,12
22.021939039230347,false,0.3149414,0.96972656,0.4272461,0.4992032,0.11474533,0.96972656,0.4272461,8,7,8,4,-65,5,13,5
22.024438977241516,false,0.5019531,1.3735352,0.29248047,0.4725884,0.15466085,1.3735352,0.29248047,1,0,-4,-5,20,10,14,11
22.053696036338806,false,0.51953125,1.3710938,0.3125,0.4500734,0.18573004,1.3710938,0.3125,-7,-3,3,1,-16,2,58,-14
22.082116961479187,false,0.32910156,1.3208008,0.40771484,0.42980018,0.21288598,1.3208008,0.40771484,0,-4,-8,-19,38,-8,-27,12
22.084542989730835,false,0.2084961,1.3652344,0.40429688,0.41410708,0.23662391,1.3652344,0.40429688,24,28,4,34,16,-4,2,-9
22.113045930862427,false,0.14501953,1.4858398,0.3930664,0.40190026,0.25768003,1.4858398,0.3930664,-20,-19,30,39,10,7,-84,-10
22.14185893535614,false,0.10058594,1.5917969,0.34375,0.3929328,0.27721354,1.5917969,0.34375,-5,-21,-15,-17,-41,-55,1,17
22.144439935684204,false,0.14697266,1.7626953,0.22851562,0.38861048,0.29290745,1.7626953,0.22851562,0,3,-12,-31,-21,30,-2,-12
22.173017024993896,false,0.23486328,1.6113281,0.40478516,0.39399156,0.29755366,1.6113281,0.40478516,7,10,1,-4,2,38,21,-7
22.202342987060547,false,0.32666016,-1.2109375,0.21191406,0.40502518,0.29217234,-1.2109375,0.21191406,18,89,-8,-27,-3,-16,8,-1
22.20439600944519,false,-1.7192383,0.33691406,0.58154297,0.37920976,0.32299662,0.33691406,0.58154297,-57,-121,-8,16,-27,-9,12,-1
22.233744025230408,false,-0.7270508,1.3969727,0.6743164,0.3566851,0.34655342,1.3969727,0.6743164,118,123,4,17,106,4,11,2
22.261945009231567,false,0.049316406,1.5087891,0.15917969,0.33433637,0.36357096,1.5087891,0.15917969,45,82,-1,-18,-66,-12,-3,1
22.26429796218872,false,0.14892578,1.847168,-0.18945312,0.31945008,0.37267143,1.847168,-0.18945312,21,-31,-1,-10,-89,7,7,-1
22.29309904575348,false,0.087890625,1.2280273,-0.0043945312,0.3181736,0.37084648,1.2280273,-0.0043945312,-19,-43,0,-11,21,-5,-30,-9
22.322008967399597,false,-0.06591797,0.7685547,0.17773438,0.3153594,0.37035048,0.7685547,0.17773438,4,-50,8,19,8,30,16,3
22.324514031410217,false,-0.33007812,0.89697266,0.36035156,0.3049242,0.37541807,0.89697266,0.36035156,-19,-15,-16,-16,-8,17,8,-73
22.35304594039917,false,-0.44433594,1.5043945,0.05419922,0.29033917,0.3832941,1.5043945,0.05419922,-16,20,-22,-16,14,26,-42,30
22.382017016410828,false,-0.14013672,2.0234375,-0.2084961,0.28453916,0.3864044,2.0234375,-0.2084961,-6,23,16,36,5,-27,4,3
22.385028958320618,false,0.14257812,1.8740234,-0.29736328,0.29491583,0.38304877,1.8740234,-0.29736328,-6,-24,-2,-5,20,9,-1,6
22.413044929504395,false,0.19824219,1.5561523,-0.15234375,0.31456113,0.37626493,1.5561523,-0.15234375,2,7,-2,-20,-26,-6,5,-5
22.441928029060364,false,0.15576172,1.2885742,-0.6044922,0.338443,0.36572596,1.2885742,-0.6044922,-22,12,9,3,4,-31,0,7
22.44430899620056,false,-1.2163086,-0.020019531,0.93896484,0.35277236,0.35472542,-0.020019531,0.93896484,69,-25,13,20,25,20,13,-7
22.473042964935303,false,-1.2133789,-0.24902344,0.85839844,0.34717256,0.35052955,-0.24902344,0.85839844,-86,13,-5,-4,49,-88,14,19
22.50191593170166,false,-0.076660156,0.5463867,0.3305664,0.3329363,0.3578989,0.5463867,0.3305664,73,-8,-18,-33,-50,16,-8,12
22.5331130027771,false,0.056152344,1.434082,-0.09863281,0.31004864,0.37932134,1.434082,-0.09863281,6,-4,13,18,-24,-12,11,-5
22.53507697582245,false,0.14501953,1.918457,-0.28173828,0.304615,0.38536146,1.918457,-0.28173828,-83,25,4,4,11,18,1,1
22.56198501586914,false,-0.0043945312,1.0703125,0.052734375,0.3134767,0.376404,1.0703125,0.052734375,46,-22,-2,7,7,-31,-15,-3
22.562945008277893,false,-0.24902344,0.5917969,0.30371094,0.31279632,0.3716936,0.5917969,0.30371094,51,17,23,8,10,-32,11,-26
22.592540979385376,false,-0.36914062,0.9995117,0.040039062,0.30169162,0.37578705,0.9995117,0.040039062,24,21,-11,-10,-11,-21,20,16
22.621951937675476,false,-0.09814453,1.8413086,-0.2734375,0.29485646,0.38042647,1.8413086,-0.2734375,-4,-5,8,23,-21,-13,-3,-19
22.6237850189209,false,0.20263672,1.9780273,-0.34277344,0.303645,0.37670293,1.9780273,-0.34277344,3,-7,-32,-34,-20,-3,0,15
22.6523779630661,false,0.13330078,1.7880859,-0.28564453,0.3225597,0.36857864,1.7880859,-0.28564453,-18,-36,-26,-11,21,-2,-107,-77
22.681977033615112,false,0.0073242188,1.3857422,-0.10839844,0.34869045,0.35583147,1.3857422,-0.10839844,6,2,8,13,-7,-1,6,10
22.683648943901062,false,-0.021972656,0.80566406,-0.33398438,0.3792507,0.33805436,0.80566406,-0.33398438,-2,-4,4,-6,-15,-5,12,8
22.71237301826477,false,-1.293457,-1.1801758,1.1552734,0.40173244,0.32134932,-1.1801758,1.1552734,-78,-24,1,-1,-14,-32,9,23
22.7425799369812,false,-1.5146484,-0.50927734,0.9223633,0.40433443,0.3080876,-0.50927734,0.9223633,78,39,-1,13,35,-4,15,-12
22.744480967521667,false,0.020996094,0.31298828,0.625,0.39751586,0.3052321,0.31298828,0.625,-1,15,6,-4,-24,14,11,21
22.772451043128967,false,0.075683594,0.80859375,-0.00048828125,0.37560448,0.3217723,0.80859375,-0.00048828125,20,-6,13,7,91,0,-3,3
22.80192804336548,false,0.0073242188,1.9511719,-0.44677734,0.36083055,0.3329382,1.9511719,-0.44677734,21,10,-3,-13,-74,-27,5,7
22.803815007209778,false,0.044921875,1.5532227,-0.23632812,0.36370924,0.32672185,1.5532227,-0.23632812,-55,-10,-2,5,20,19,-7,4
22.83237600326538,false,0.06689453,0.72216797,0.16455078,0.3692021,0.31481972,0.72216797,0.16455078,19,-33,-7,-30,30,16,26,47
22.86226797103882,false,-0.076660156,0.78564453,0.22949219,0.36462462,0.3114629,0.78564453,0.22949219,17,-14,1,13,-61,-15,-16,6
22.86384403705597,false,-0.078125,1.4609375,-0.08886719,0.35632467,0.31640753,1.4609375,-0.08886719,-9,-24,-13,2,-15,21,-7,3
22.892403960227966,false,0.2368164,1.8144531,-0.41601562,0.35704035,0.32127526,1.8144531,-0.41601562,-21,-19,-17,12,-18,-14,43,7
22.922552943229675,false,0.4111328,1.8183594,-0.40966797,0.37225798,0.3206216,1.8183594,-0.40966797,6,7,10,-6,33,-3,-53,3
22.92441701889038,false,0.18847656,1.4760742,-0.18847656,0.39764455,0.3136601,1.4760742,-0.18847656,6,11,7,6,0,1,-2,-11
22.952455043792725,false,0.03857422,0.8051758,-0.25634766,0.4293058,0.29814598,0.8051758,-0.25634766,0,7,3,0,-6,3,3,-12
22.982143998146057,false,-1.8173828,-0.10498047,1.0825195,0.44163156,0.28905016,-0.10498047,1.0825195,-60,-38,1,-2,-18,66,1,-17
22.983705043792725,false,-0.95410156,-0.29296875,0.7714844,0.44243294,0.2799003,-0.29296875,0.7714844,-86,23,2,5,9,-8,-8,-6
23.012439966201782,false,0.18896484,0.46533203,0.49609375,0.43346962,0.28619248,0.46533203,0.49609375,36,-1,2,-3,16,-25,15,-1
23.042009949684143,false,0.19580078,1.0341797,0.14990234,0.41588548,0.303644,1.0341797,0.14990234,29,-23,1,-22,-71,-18,3,-2
23.04364001750946,false,-0.029296875,1.6782227,-0.203125,0.40197322,0.31267974,1.6782227,-0.203125,-20,54,-3,10,127,-21,-3,-5
23.072383999824524,false,0.03173828,1.168457,-0.08496094,0.40080756,0.30699894,1.168457,-0.08496094,2,-19,-11,-21,-41,20,36,-3
23.102174043655396,false,0.06298828,0.67089844,0.0703125,0.3983695,0.302607,0.67089844,0.0703125,45,24,6,32,1,-10,-6,-10
23.103871941566467,false,0.13671875,1.0473633,-0.0146484375,0.3903103,0.30577865,1.0473633,-0.0146484375,13,23,-8,14,-58,-17,-56,1
23.13242995738983,false,0.21826172,1.5869141,-0.19335938,0.3840926,0.3125597,1.5869141,-0.19335938,7,2,3,24,17,-32,4,14
23.162037014961243,false,0.40429688,1.6679688,-0.25390625,0.387935,0.3161585,1.6679688,-0.25390625,5,5,4,10,16,27,-13,5
23.163777947425842,false,0.43603516,1.559082,-0.29492188,0.40135795,0.31713137,1.559082,-0.29492188,-4,-5,-1,-9,1,-7,12,-11
23.222723960876465,false,0.36132812,1.4624023,-0.17822266,0.42290318,0.31377473,1.4624023,-0.17822266,-3,-12,-9,-13,-14,2,4,-6
23.25338304042816,false,-0.119140625,0.42822266,0.85009766,0.45757434,0.29113373,0.42822266,0.85009766,2,-12,3,-6,-2,87,5,-5
23.282474994659424,false,0.3720703,0.703125,0.26416016,0.447153,0.27625096,0.703125,0.26416016,73,23,-5,-11,-8,-12,-3,-1
23.284626007080078,false,0.15625,1.3681641,0.08203125,0.43143982,0.29130885,1.3681641,0.08203125,22,25,-6,-6,-15,-1,1,0
23.312397003173828,false,-0.33203125,1.8618164,-0.10498047,0.4170411,0.29772082,1.8618164,-0.10498047,2,18,0,-2,-14,-14,6,-5
23.34258794784546,false,-0.076171875,1.0615234,0.0126953125,0.4196778,0.28460696,1.0615234,0.0126953125,-1,-30,-3,-2,16,21,-1,11
23.34455394744873,false,0.296875,0.66308594,0.12597656,0.41972336,0.27470917,0.66308594,0.12597656,16,-8,5,-2,-32,8,32,36
23.37243902683258,false,0.3647461,0.98339844,0.080566406,0.41260046,0.2771015,0.98339844,0.080566406,25,29,-9,-11,69,-10,3,7
23.402442932128906,false,0.27685547,1.5292969,-0.12109375,0.40801993,0.28521723,1.5292969,-0.12109375,-1,3,0,29,-8,-8,-41,-15
23.404446959495544,false,0.39160156,1.6420898,-0.13134766,0.4156458,0.28893793,1.6420898,-0.13134766,37,64,-1,-16,-23,-18,10,-21
23.432343006134033,false,0.3540039,1.4135742,-0.03857422,0.43372574,0.28900808,1.4135742,-0.03857422,-37,-33,12,6,6,5,-16,-7
23.462571024894714,false,0.296875,1.2553711,0.076171875,0.4569101,0.2880255,1.2553711,0.076171875,-7,-14,2,3,7,6,-1,-9
23.464460015296936,false,-1.0678711,-0.54052734,1.9228516,0.48326,0.26415122,-0.54052734,1.9228516,-17,-4,0,-5,3,35,3,-3
23.49242603778839,false,-1.7734375,1.0688477,0.44726562,0.4729635,0.2617199,1.0688477,0.44726562,81,26,-5,-3,22,-33,4,-7
23.522603034973145,false,0.6425781,0.39648438,0.51416016,0.4812034,0.2504284,0.39648438,0.51416016,32,-44,0,-1,-76,3,-12,3
23.52438998222351,false,0.22167969,0.91748047,0.23535156,0.47636452,0.2603068,0.91748047,0.23535156,15,18,0,-4,-74,4,14,5
23.552435994148254,false,0.07910156,1.5522461,-0.0546875,0.46838015,0.26507363,1.5522461,-0.0546875,43,-9,0,6,42,-7,-5,-3
23.58264398574829,false,-0.25830078,1.4121094,-0.048828125,0.46642482,0.26232582,1.4121094,-0.048828125,-85,51,7,-3,-15,2,-18,-11
23.584583044052124,false,-0.03857422,0.99853516,0.0625,0.4698975,0.24627048,0.99853516,0.0625,0,-36,0,-11,-8,9,17,7
23.612422943115234,false,0.24072266,1.0097656,0.10107422,0.47144032,0.22937244,1.0097656,0.10107422,5,-11,-15,-11,69,-2,-3,-6
23.64238202571869,false,0.33935547,1.0629883,0.005859375,0.47289503,0.2190527,1.0629883,0.005859375,33,-3,8,10,0,2,7,-2
23.644381999969482,false,0.37353516,0.99365234,0.041503906,0.4807706,0.21063086,0.99365234,0.041503906,-49,-29,-4,4,19,10,5,-32
23.67243194580078,false,0.37695312,0.89697266,0.12695312,0.4945704,0.20428571,0.89697266,0.12695312,-65,-6,0,0,-33,-24,-68,25
23.70248293876648,false,0.27001953,0.92626953,0.20458984,0.51379776,0.20074612,0.92626953,0.20458984,-46,-28,-1,8,18,1,-56,-38
23.704465985298157,false,0.21386719,1.0224609,0.38378906,0.5381404,0.19677494,1.0224609,0.38378906,19,-2,-5,0,26,14,53,0
23.732468008995056,false,0.24560547,0.9013672,0.5136719,0.56621593,0.19402829,0.9013672,0.5136719,35,24,1,-5,5,-13,10,4
23.7625550031662,false,-0.017089844,0.8305664,-0.13964844,0.59076935,0.19403407,0.8305664,-0.13964844,-6,-18,-12,-1,-17,-1,-8,5
23.764524936676025,false,-0.38183594,0.040039062,2.5551758,0.6190194,0.1785891,0.040039062,2.5551758,-93,28,23,-1,1,0,28,16
23.792359948158264,false,-1.3046875,0.6816406,1.559082,0.6138329,0.16076721,0.6816406,1.559082,108,17,-7,-14,53,5,-3,10
23.822412967681885,false,0.2861328,0.7548828,0.7338867,0.59886897,0.14025691,0.7548828,0.7338867,-89,-77,9,14,27,-2,3,-21
23.82446599006653,false,0.079589844,1.0512695,0.25390625,0.5968524,0.1304909,1.0512695,0.25390625,-12,49,8,20,-27,-5,4,5
23.852355003356934,false,0.1953125,0.92285156,-0.107910156,0.59087855,0.11517279,0.92285156,-0.107910156,9,13,-4,-28,-39,-17,-17,16
23.882508993148804,false,0.1796875,0.6430664,0.57373047,0.597338,0.089231454,0.6430664,0.57373047,33,-15,0,14,-29,6,-46,9
23.884456992149353,false,-0.028320312,0.40527344,0.5366211,0.600385,0.063657776,0.40527344,0.5366211,26,-26,-13,-4,-8,-39,-6,30
23.912423968315125,false,0.25195312,0.25732422,0.34765625,0.59617966,0.04150309,0.25732422,0.34765625,2,4,-3,3,20,-13,-48,-21
23.942474007606506,false,0.39941406,0.19628906,0.100097656,0.596861,0.031066801,0.19628906,0.100097656,-11,-4,1,-8,-2,17,87,1
23.944393038749695,false,0.46875,0.09423828,0.14453125,0.6067594,0.031311497,0.09423828,0.14453125,29,24,-5,5,-2,27,28,45
23.972453951835632,false,0.31201172,-0.020507812,0.20410156,0.61912704,0.04925429,-0.020507812,0.20410156,-1,-9,2,2,-8,0,16,-6
24.00245702266693,false,0.033203125,0.2133789,0.42138672,0.6287125,0.07800161,0.2133789,0.42138672,-14,-11,-4,-2,5,7,-1,-36
24.00448501110077,false,-0.31201172,1.5258789,3.9511719,0.6338597,0.10351719,1.5258789,3.9511719,-2,1,-10,-7,16,-56,-19,-4
24.032384037971497,false,-1.3764648,2.1713867,2.088379,0.63635486,0.08581575,2.1713867,2.088379,13,35,5,-18,-100,4,-10,-12
24.062525987625122,false,0.8691406,0.5605469,1.3544922,0.6363879,0.06426742,0.5605469,1.3544922,-4,-11,22,39,85,-27,-10,-14
24.064414978027344,false,0.5361328,0.41064453,0.57373047,0.6348667,0.054136395,0.41064453,0.57373047,-1,-8,-17,-70,31,31,-6,-4
24.09228801727295,false,0.41992188,0.4165039,0.24072266,0.6317116,0.04595931,0.4165039,0.24072266,0,-6,-7,18,-22,22,0,2
24.122436046600342,false,-0.09863281,0.70410156,0.82958984,0.63226855,0.04058872,0.70410156,0.82958984,-2,-6,-2,1,2,-19,-54,-8
24.124449968338013,false,-0.24072266,0.6826172,0.75146484,0.6312735,0.027953522,0.6826172,0.75146484,-5,-4,1,-4,10,5,-63,-29
24.152449011802673,false,0.3803711,0.1459961,0.5024414,0.6260281,0.004272396,0.1459961,0.5024414,-9,-13,-4,1,-14,15,120,35
24.182588934898376,false,0.32177734,-0.04638672,0.296875,0.623828,-0.008361651,-0.04638672,0.296875,2,-5,-1,11,-3,-6,12,4
24.184455037117004,false,0.23144531,-0.14453125,0.051757812,0.6262599,-0.007690162,-0.14453125,0.051757812,9,7,1,1,-10,-16,-30,-15
24.212445974349976,false,0.19433594,-0.03466797,0.21386719,0.6296788,0.0049436833,-0.03466797,0.21386719,23,27,-11,3,1,2,90,18
24.242568016052246,false,0.078125,0.22851562,0.3310547,0.63073534,0.025939861,0.22851562,0.3310547,-8,-8,-3,3,0,-6,-32,-1
24.244526982307434,false,0.12597656,0.49658203,0.7783203,0.63208467,0.0493778,0.49658203,0.7783203,1,0,-2,-7,-2,4,-27,-5
24.272424936294556,false,-0.005859375,0.42529297,1.0649414,0.63562787,0.06646809,0.42529297,1.0649414,-17,-6,55,10,-29,11,-4,-6
24.302395939826965,false,-1.0107422,2.1469727,2.8486328,0.6461724,0.07574383,2.1469727,2.8486328,-4,-10,-9,42,97,50,-3,-2
24.304463028907776,false,0.11669922,0.3720703,1.3066406,0.64293176,0.064757034,0.3720703,1.3066406,-3,-16,-19,-18,24,79,-5,5
24.33233892917633,false,0.6220703,0.63916016,0.74072266,0.6401558,0.059022754,0.63916016,0.74072266,9,5,-5,-29,-23,-42,1,1
24.362326979637146,false,0.4272461,0.23730469,0.4946289,0.642508,0.04980398,0.23730469,0.4946289,3,12,0,16,-13,-1,-6,2
24.36443603038788,false,-0.051757812,0.5541992,0.7841797,0.6436275,0.04522788,0.5541992,0.7841797,-1,8,-9,1,-10,-41,-2,-3
24.392544984817505,false,-0.24072266,0.6689453,0.7182617,0.6428726,0.037169788,0.6689453,0.7182617,-2,1,-3,4,-11,-10,1,-17
24.42247998714447,false,0.26904297,0.19921875,0.47851562,0.6417172,0.013610704,0.19921875,0.47851562,-8,-11,-2,17,49,-18,-9,10
24.424484968185425,false,0.42578125,-0.14697266,0.34716797,0.6408011,-0.0020751725,-0.14697266,0.34716797,7,10,-9,-26,6,4,5,-9
24.453112959861755,false,0.3857422,-0.19873047,0.15136719,0.64202076,-0.0040893042,-0.19873047,0.15136719,-9,-19,-2,-8,-31,12,-40,-19
24.48239803314209,false,0.3046875,-0.036621094,0.28320312,0.64324945,0.004821777,-0.036621094,0.28320312,10,6,1,12,2,-2,61,-13
24.484475016593933,false,0.15283203,0.24365234,0.3173828,0.6430009,0.022765955,0.24365234,0.3173828,2,8,5,-3,-20,-18,-23,7
24.5124089717865,false,0.099609375,0.3955078,0.6064453,0.644398,0.04394455,0.3955078,0.6064453,-2,-3,-2,-3,0,-1,16,2
24.54247498512268,false,-0.2055664,0.7763672,2.4541016,0.64634466,0.059019383,0.7763672,2.4541016,-11,-14,4,11,6,-19,-11,3
24.544505953788757,false,-1.4277344,1.6289062,2.402832,0.6569744,0.05401545,1.6289062,2.402832,-4,2,-19,11,-28,83,-3,1
24.572450041770935,false,0.3701172,0.15771484,1.421875,0.6555213,0.041809317,0.15771484,1.421875,3,-13,-8,-13,7,-17,-1,9
24.602502942085266,false,0.38378906,0.5415039,0.71728516,0.6525386,0.04724206,0.5415039,0.71728516,2,0,1,20,61,-46,-6,-1
24.604408979415894,false,0.609375,0.32861328,0.40185547,0.65483034,0.03814605,0.32861328,0.40185547,-3,6,9,-20,-60,13,3,1
24.632431983947754,false,-0.0859375,0.5209961,0.7988281,0.65519327,0.03613176,0.5209961,0.7988281,-1,3,5,17,17,-25,-1,3
24.66248893737793,false,-0.30322266,0.63671875,0.76904297,0.655457,0.031188987,0.63671875,0.76904297,-5,-2,-12,-15,33,-13,-33,-32
24.664481043815613,false,0.23095703,0.21875,0.5834961,0.65491235,0.013549911,0.21875,0.5834961,1,-4,4,9,-3,6,90,57
24.69236397743225,false,0.3959961,-0.03857422,0.43847656,0.6533871,0.002380392,-0.03857422,0.43847656,2,-4,4,-12,-60,-15,-27,-1
24.72260093688965,false,0.3544922,-0.33203125,0.28125,0.6549549,0.00140378,-0.33203125,0.28125,17,34,1,-27,-9,0,-8,-42
24.72445297241211,false,0.30810547,-0.07373047,0.37841797,0.65508527,0.015869018,-0.07373047,0.37841797,-1,-9,6,2,8,-14,37,31
24.752615928649902,false,0.10644531,0.359375,0.30566406,0.6526491,0.039611828,0.359375,0.30566406,2,0,1,-3,-10,-11,-39,-2
24.78262197971344,false,0.056640625,0.35498047,0.36914062,0.6518604,0.06091355,0.35498047,0.36914062,-1,-1,-5,-4,-3,4,1,-3
24.784530997276306,false,-0.31396484,1.4492188,2.7270508,0.65471125,0.07653658,1.4492188,2.7270508,3,-3,-5,-2,11,-90,-5,-4
24.812371015548706,false,-1.2236328,0.8100586,1.3671875,0.65571654,0.059327606,0.8100586,1.3671875,-35,-22,1,-1,-28,80,-1,-3
24.84250795841217,false,0.16015625,0.118652344,1.1826172,0.6520521,0.0573132,0.118652344,1.1826172,16,9,1,5,20,51,-10,1
24.872642993927002,false,-0.026855469,0.3017578,0.6479492,0.6487336,0.06945704,0.3017578,0.6479492,-9,-9,1,-3,-13,-26,-12,-4
24.874457955360413,false,0.05419922,-0.049316406,0.6274414,0.6461762,0.07830774,-0.049316406,0.6274414,-5,0,-1,-2,1,12,1,-1
24.90263295173645,false,-0.31933594,0.19580078,0.6484375,0.63732636,0.10003619,0.19580078,0.6484375,10,5,-4,1,10,-10,0,2
24.904587984085083,false,-0.39892578,0.3857422,0.72314453,0.6260301,0.12347263,0.3857422,0.72314453,2,-2,1,-1,-1,-15,-1,-2
24.93246901035309,false,-0.3701172,0.47460938,0.78564453,0.6131562,0.14428641,0.47460938,0.78564453,-4,-2,7,1,-5,-6,-7,-10
24.962440013885498,false,-0.4033203,0.45947266,0.8510742,0.59966654,0.16229144,0.45947266,0.8510742,5,3,-4,-2,5,0,-1,3
24.964395999908447,false,-0.4428711,0.41210938,0.8642578,0.584332,0.17986488,0.41210938,0.8642578,-13,-6,12,1,-19,-3,-3,-3
24.99255096912384,false,-0.43017578,0.31640625,0.70703125,0.5658513,0.19952193,0.31640625,0.70703125,-6,-5,-9,-7,-18,-5,-2,-3
25.02261793613434,false,-0.4873047,0.48779297,0.54833984,0.54328454,0.22613968,0.48779297,0.54833984,0,1,-4,0,5,1,2,1
25.024644017219543,false,-0.56152344,0.99560547,0.67626953,0.5182462,0.2554305,0.99560547,0.67626953,3,3,0,-13,-10,2,-2,2
25.05246901512146,false,-0.5473633,1.2890625,0.8569336,0.49547708,0.27917126,1.2890625,0.8569336,0,-1,-12,-16,13,-5,-2,-2
25.082386016845703,false,-0.39990234,1.0825195,0.9716797,0.4759907,0.2933211,1.0825195,0.9716797,3,-1,-5,-7,-19,-5,-3,1
25.084349989891052,false,-0.16845703,0.7636719,0.9013672,0.45600033,0.3017012,0.7636719,0.9013672,3,2,2,0,-15,-5,-2,-1
25.11245894432068,false,0.0078125,0.7368164,0.81347656,0.43167928,0.3107749,0.7368164,0.81347656,0,0,1,7,-6,0,-1,0
25.142498016357422,false,0.021484375,0.8227539,0.71191406,0.40508932,0.32281414,0.8227539,0.71191406,-3,-5,-11,-20,16,-6,-2,-3
25.144413948059082,false,0.048828125,0.8701172,0.52197266,0.38024685,0.33398247,0.8701172,0.52197266,3,1,3,42,3,5,1,-1
25.17241597175598,false,0.06982422,0.98095703,0.38720703,0.35754234,0.34216154,0.98095703,0.38720703,-5,8,0,-26,-6,-11,-21,-3
25.233057022094727,false,0.030761719,1.1958008,0.2998047,0.33746278,0.34716734,1.1958008,0.2998047,-3,-13,-13,-5,51,8,10,4
25.235188007354736,false,-0.025390625,1.3618164,0.19921875,0.32664022,0.34769607,1.3618164,0.19921875,-2,-2,7,29,12,3,1,-5
25.262550950050354,false,-0.053710938,1.3823242,0.09326172,0.33576176,0.33997327,1.3823242,0.09326172,1,21,8,-11,-18,-1,6,4
25.264493942260742,false,-0.2006836,1.296875,0.24365234,0.34983954,0.3333607,1.296875,0.24365234,-9,-9,-3,1,-43,0,0,1
25.292569994926453,false,-0.32470703,1.3012695,0.3486328,0.36571783,0.32610652,1.3012695,0.3486328,-4,25,18,-5,-13,-2,2,-1
25.322474002838135,false,-0.32910156,1.2954102,0.2861328,0.3824451,0.32018945,1.2954102,0.2861328,10,-4,-19,15,-26,12,23,-6
25.32438600063324,false,-0.328125,1.3662109,0.21044922,0.40196574,0.3135284,1.3662109,0.21044922,-6,-62,-45,-1,0,-5,-13,-4
25.352442979812622,false,-0.24707031,1.3413086,0.24169922,0.4268642,0.3036998,1.3413086,0.24169922,-5,4,17,-6,44,2,-4,1
25.38248300552368,false,-0.21240234,1.1728516,0.3071289,0.4554327,0.29137442,1.1728516,0.3071289,0,8,10,-11,10,-4,-7,-1
25.384624004364014,false,-0.25097656,0.9609375,0.37939453,0.4833513,0.27704653,0.9609375,0.37939453,1,-1,-4,-7,-16,0,-4,-3
25.413058042526245,false,-0.39794922,0.14404297,0.4711914,0.51078236,0.25371277,0.14404297,0.4711914,10,4,7,15,37,0,-3,2
25.442503929138184,false,-2.0253906,-0.26904297,1.5410156,0.52098584,0.2257646,-0.26904297,1.5410156,105,-15,11,3,0,8,10,2
25.444447994232178,false,-0.7167969,0.0625,0.58935547,0.51535493,0.20445749,0.0625,0.58935547,-128,-24,-6,-14,-15,-7,-8,25
25.47249400615692,false,0.68408203,0.061523438,0.40673828,0.5103566,0.20580274,0.061523438,0.40673828,79,-17,-5,-23,36,-3,3,-3
25.50263202190399,false,0.2368164,1.0351562,0.06347656,0.49218357,0.22808656,1.0351562,0.06347656,-8,62,-3,-2,-10,-15,-4,-6
25.504462003707886,false,0.09375,1.4887695,-0.051757812,0.4832107,0.23364034,1.4887695,-0.051757812,-5,5,2,10,4,8,-5,-20
25.53243899345398,false,-0.0234375,1.1318359,0.107421875,0.47490838,0.23058783,1.1318359,0.107421875,-13,-20,5,-15,-6,-3,21,43
25.562487959861755,false,0.13378906,0.8730469,0.23046875,0.47032622,0.22118637,0.8730469,0.23046875,19,-5,-3,-20,-20,-15,-26,-18
25.564486026763916,false,0.32373047,1.0888672,0.23583984,0.46594623,0.21954526,1.0888672,0.23583984,6,-21,-22,17,-1,5,21,0
25.592571020126343,false,0.49609375,1.3461914,0.075683594,0.46398416,0.22820795,1.3461914,0.075683594,-19,-11,34,2,-8,17,28,18
25.62248694896698,false,0.55566406,1.5610352,-0.08642578,0.4702604,0.23693068,1.5610352,-0.08642578,23,10,-30,-28,0,-8,-17,-5
25.625175952911377,false,0.4609375,1.5927734,-0.0146484375,0.48547924,0.24060337,1.5927734,-0.0146484375,-2,21,12,14,-30,-2,-2,-9
25.65312397480011,false,-0.07714844,-0.47607422,0.32763672,0.51751155,0.22106697,-0.47607422,0.32763672,8,14,2,3,3,12,-2,-8
25.6824449300766,false,-2.477539,0.6611328,1.3320312,0.5245741,0.19103163,0.6611328,1.3320312,99,-31,-4,4,-22,-7,0,-39
25.684527039527893,false,-0.5654297,0.0048828125,0.81591797,0.5134164,0.18993722,0.0048828125,0.81591797,-128,-15,-6,-2,39,-11,-17,32
25.712394952774048,false,0.33740234,0.8730469,0.4248047,0.50561523,0.2041626,0.8730469,0.4248047,124,-78,-2,6,43,1,-7,-7
25.74244999885559,false,0.19140625,1.1533203,0.4013672,0.49210563,0.21916798,1.1533203,0.4013672,-79,75,1,4,-23,-15,-2,-12
25.772485971450806,false,-0.22265625,1.6987305,0.088378906,0.47813118,0.22490597,1.6987305,0.088378906,10,44,-13,0,-9,-9,-20,-11
25.774227023124695,false,0.045410156,0.96484375,0.2397461,0.47766775,0.2097197,0.96484375,0.2397461,-40,-12,-1,-12,18,6,-32,-14
25.80252194404602,false,0.57421875,0.5576172,0.29492188,0.4739808,0.19408435,0.5576172,0.29492188,28,16,14,14,24,8,41,-24
25.832077980041504,false,0.82421875,0.87939453,0.11279297,0.46415976,0.19268276,0.87939453,0.11279297,17,18,-5,-23,-42,-12,-25,-6
25.833922028541565,false,0.84521484,1.3974609,-0.21728516,0.45940882,0.20184204,1.3974609,-0.21728516,14,-6,0,-9,17,3,18,23
25.862365007400513,false,0.93847656,1.5258789,-0.19628906,0.4681346,0.20532006,1.5258789,-0.19628906,-34,9,3,19,-14,2,-10,-6
25.865085005760193,false,0.66845703,1.3637695,-0.022460938,0.4861951,0.2050735,1.3637695,-0.022460938,-23,0,3,9,0,2,-5,10
25.893141984939575,false,0.484375,1.1206055,0.13134766,0.51153105,0.2020856,1.1206055,0.13134766,30,-6,4,0,-4,0,3,4
25.922590970993042,false,-1.1611328,-2.305664,3.284668,0.54057723,0.15984778,-2.305664,3.284668,-14,21,-3,-3,-43,16,5,4
25.92503297328949,false,-2.8618164,1.0327148,0.32177734,0.5124955,0.16668159,1.0327148,0.32177734,-68,-125,-2,3,-18,-35,5,-70
25.953047037124634,false,0.9838867,0.08203125,0.42089844,0.50334233,0.17187002,0.08203125,0.42089844,93,127,-2,8,-102,13,-4,56
25.982002019882202,false,0.3203125,0.26464844,0.49609375,0.50731754,0.18768065,0.26464844,0.49609375,81,73,1,-4,80,-2,-1,-13
25.98381996154785,false,0.14453125,0.51220703,0.3310547,0.4887058,0.20983772,0.51220703,0.3310547,-128,-84,0,-2,35,-1,-1,-2
26.0123770236969,false,-0.48828125,1.2402344,0.18554688,0.46916914,0.23095304,1.2402344,0.18554688,50,-22,2,-2,36,6,2,9
26.041962027549744,false,-0.85058594,1.2817383,0.28125,0.4564758,0.24456458,1.2817383,0.28125,109,12,-2,-1,-12,11,3,17
26.043954014778137,false,-0.22460938,0.98828125,0.24316406,0.44781244,0.25030378,0.98828125,0.24316406,22,6,5,-1,1,8,8,20
26.072402954101562,false,-0.10498047,0.859375,0.27685547,0.43804294,0.2593346,0.859375,0.27685547,-29,-6,-5,-2,13,4,7,11
26.102658987045288,false,-0.28515625,1.0678711,0.39013672,0.4246076,0.27458814,1.0678711,0.39013672,-22,-2,6,-3,-23,-7,-7,-8
26.13210701942444,false,-0.24658203,1.2783203,0.45703125,0.41057533,0.28838536,1.2783203,0.45703125,-25,-24,-8,5,-3,7,-7,0
26.133839964866638,false,-0.2241211,1.390625,0.3486328,0.39800063,0.2997364,1.390625,0.3486328,-18,-27,11,-6,-19,11,42,5
26.162438988685608,false,-0.296875,1.668457,0.59033203,0.38963223,0.30974054,1.668457,0.59033203,-19,47,-6,-36,81,-20,-16,-5
26.19207501411438,false,-0.04296875,1.9008789,0.43701172,0.39311653,0.30718142,1.9008789,0.43701172,127,-4,1,16,34,-1,-5,-8
26.196946024894714,false,0.19580078,1.3608398,0.38134766,0.4090548,0.29284465,1.3608398,0.38134766,-128,-115,-20,3,-25,2,-3,0
26.222313046455383,false,0.14697266,1.1953125,0.55908203,0.42430922,0.28094006,1.1953125,0.55908203,11,40,-3,-13,35,-15,-7,-10
26.251945972442627,false,0.19628906,1.222168,0.5019531,0.443168,0.2692821,1.222168,0.5019531,17,34,9,5,-61,3,2,2
26.253731966018677,false,0.2578125,1.1274414,0.4248047,0.4675871,0.25353828,1.1274414,0.4248047,49,-3,-12,20,46,0,0,-1
26.282287001609802,false,0.2397461,0.9838867,0.40722656,0.49528915,0.23498006,0.9838867,0.40722656,-15,19,3,-4,-30,-10,-10,-5
26.31208097934723,false,0.1875,0.7651367,0.39501953,0.5259938,0.2149629,0.7651367,0.39501953,-23,7,-8,9,14,-9,-11,-3
