time,gesture,ax,ay,az,qw,qx,qy,qz,e0,e1,e2,e3,e4,e5,e6,e7
11.223473072052002,false,0.09082031,0.38183594,0.98291016,0.9649045,0.21247675,0.38183594,0.98291016,-5,-16,-3,-5,2,0,-4,-1
11.223790049552917,false,0.19140625,0.43798828,0.9980469,0.9632449,0.22010401,0.43798828,0.9980469,-3,-4,-3,-1,0,0,-1,-1
11.225161075592041,false,0.24951172,0.4638672,0.9892578,0.96113217,0.22815216,0.4638672,0.9892578,0,-4,-5,-4,3,0,-2,-1
11.22627604007721,false,0.2319336,0.31933594,1.0375977,0.95990837,0.23089804,0.31933594,1.0375977,2,2,1,-2,0,-2,-2,1
11.228125095367432,false,0.2685547,0.34033203,0.9638672,0.95839655,0.2350519,0.34033203,0.9638672,2,-3,1,-1,-1,-1,-1,2
11.22945499420166,false,0.53125,0.3564453,0.8720703,0.95573574,0.24195533,0.3564453,0.8720703,-2,0,-3,-2,-2,0,-1,-3
11.230504035949707,false,0.041992188,0.3310547,0.8881836,0.9559392,0.23927473,0.3310547,0.8881836,-2,-1,-3,1,-5,-1,-1,-1
11.23412299156189,false,0.22949219,0.26757812,0.9008789,0.95695263,0.23255451,0.26757812,0.9008789,1,5,2,9,-3,-1,1,-2
11.26341199874878,false,0.16552734,0.2319336,0.8588867,0.9569045,0.23097064,0.2319336,0.8588867,3,-8,-1,-18,5,2,-3,-2
11.265583992004395,false,0.13476562,0.32080078,0.8652344,0.95728713,0.2291434,0.32080078,0.8652344,-3,1,-1,-1,1,1,1,-1
11.294311046600342,false,0.24609375,0.3857422,0.8671875,0.95710313,0.22853279,0.3857422,0.8671875,0,2,-3,-1,-2,-1,1,1
11.323338031768799,false,0.19042969,0.36767578,0.8354492,0.957332,0.22608759,0.36767578,0.8354492,-1,8,5,3,-3,-1,-2,-2
11.32553505897522,false,0.087402344,0.33642578,0.83154297,0.95772135,0.22272164,0.33642578,0.83154297,-4,-16,-4,1,0,-1,-2,-2
11.354712009429932,false,0.10205078,0.3491211,0.8691406,0.9579013,0.22076774,0.3491211,0.8691406,0,-4,0,1,-1,-2,-2,-1
11.443772077560425,false,0.12792969,0.35302734,0.8823242,0.9578056,0.22034656,0.35302734,0.8823242,-2,-1,0,4,-2,-3,-3,0
11.446213006973267,false,0.05859375,0.38964844,0.8745117,0.95752263,0.22090103,0.38964844,0.8745117,-1,-1,-5,-4,0,-1,0,1
11.447676062583923,false,-0.0043945312,0.41455078,0.8623047,0.9575727,0.22071539,0.41455078,0.8623047,0,-1,-3,-4,0,0,1,-1
11.474255084991455,false,-0.0703125,0.38085938,0.85839844,0.96053797,0.2124695,0.38085938,0.85839844,-2,-1,2,4,-2,-2,-3,-1
11.50334107875824,false,-0.08935547,0.35546875,0.8691406,0.96224767,0.20740359,0.35546875,0.8691406,0,0,-1,-4,-2,-1,-1,-2
11.505592107772827,false,-0.10449219,0.32666016,0.89160156,0.9639489,0.20264107,0.32666016,0.89160156,0,4,-1,3,-1,0,1,-1
11.534386992454529,false,-0.087402344,0.3071289,0.91015625,0.96542877,0.19910404,0.3071289,0.91015625,-1,0,3,-1,0,0,-1,0
11.563448071479797,false,-0.0859375,0.33984375,0.8823242,0.96664625,0.1970281,0.33984375,0.8823242,1,3,4,2,0,1,0,2
11.565741062164307,false,-0.140625,0.39794922,0.87060547,0.9679959,0.19440487,0.39794922,0.87060547,-1,-2,4,6,0,-1,-1,-1
11.59430205821991,false,-0.171875,0.4038086,0.88623047,0.96993417,0.18896961,0.4038086,0.88623047,-1,-1,-2,1,-2,-2,0,-3
11.623377084732056,false,-0.13378906,0.34570312,0.9165039,0.9720941,0.18226002,0.34570312,0.9165039,2,1,2,-3,-2,-2,-2,-1
11.625563025474548,false,-0.115722656,0.29736328,0.9121094,0.9739351,0.1774398,0.29736328,0.9121094,-1,-1,-3,-2,0,-2,-1,-1
11.654751062393188,false,-0.13476562,0.3125,0.90283203,0.9753265,0.17524014,0.3125,0.90283203,0,-1,-2,2,-3,0,-1,-3
11.68368399143219,false,-0.15576172,0.34277344,0.89746094,0.9765578,0.17396024,0.34277344,0.89746094,-1,-2,-3,-2,-2,-1,-2,2
11.686545014381409,false,-0.14697266,0.36523438,0.9272461,0.97779024,0.17274152,0.36523438,0.9272461,1,-2,-3,-1,-1,-1,-1,0
11.714755058288574,false,-0.11767578,0.35058594,0.9243164,0.9789089,0.17194079,0.35058594,0.9243164,-1,-2,1,-3,-1,0,-1,-2
11.743701100349426,false,-0.122558594,0.3540039,0.9140625,0.97991705,0.17121387,0.3540039,0.9140625,-2,-1,2,-2,-1,2,0,-1
11.746639013290405,false,-0.12207031,0.35546875,0.9135742,0.98115337,0.1686424,0.35546875,0.9135742,-3,2,0,2,-1,-4,-2,-1
11.774765014648438,false,-0.096191406,0.34277344,0.8833008,0.9826987,0.16351862,0.34277344,0.8833008,-2,0,-3,-2,-1,-1,-3,-2
11.803544044494629,false,-0.08496094,0.31298828,0.8911133,0.9842563,0.15748101,0.31298828,0.8911133,1,-4,-1,-2,-1,2,-1,0
11.806183099746704,false,-0.10058594,0.27392578,0.90527344,0.98547053,0.15296309,0.27392578,0.90527344,-1,0,-1,-1,1,-1,1,-1
11.835205078125,false,-0.09033203,0.2734375,0.9033203,0.98601365,0.15222967,0.2734375,0.9033203,-1,0,-2,-3,-2,-2,0,1
11.864039063453674,false,-0.071777344,0.30078125,0.9013672,0.98593956,0.15460812,0.30078125,0.9013672,-1,-2,4,4,0,-1,-1,0
11.866984009742737,false,-0.060058594,0.3125,0.8989258,0.9858512,0.1562518,0.3125,0.8989258,1,-3,-1,-1,0,-1,-2,-1
11.895209074020386,false,-0.041015625,0.29736328,0.90771484,0.986095,0.15484792,0.29736328,0.90771484,0,-2,-1,-2,-2,-1,-2,-1
11.953435063362122,false,-0.009765625,0.25341797,0.93066406,0.98659027,0.15082063,0.25341797,0.93066406,0,0,-4,-5,-1,-2,1,-1
11.95518410205841,false,-0.0043945312,0.2163086,0.94140625,0.9870208,0.1464265,0.2163086,0.94140625,0,0,-2,4,-3,-1,-1,0
11.957572102546692,false,-0.0043945312,0.19335938,0.94433594,0.9871057,0.14368333,0.19335938,0.94433594,0,-2,-3,-4,0,-1,0,0
11.983916997909546,false,0.0107421875,0.2133789,0.95410156,0.986783,0.14313145,0.2133789,0.95410156,0,-1,0,-4,1,-1,0,0
11.98595106601715,false,0.053222656,0.23632812,0.95751953,0.9861813,0.14355998,0.23632812,0.95751953,-1,-1,0,-1,-1,-2,-4,-1
12.014310002326965,false,0.080566406,0.2758789,0.9609375,0.9855724,0.14319396,0.2758789,0.9609375,-1,0,-2,-2,-1,-1,0,-1
12.043488025665283,false,0.095703125,0.28125,0.953125,0.98508877,0.1411804,0.28125,0.953125,1,5,-1,-4,-1,1,-2,0
12.045922994613647,false,0.123046875,0.26708984,0.94677734,0.9845596,0.13861965,0.26708984,0.94677734,-8,-8,-1,-7,0,-1,0,-2
12.074418067932129,false,0.16210938,0.2783203,0.95458984,0.9836558,0.13800235,0.2783203,0.95458984,3,3,-6,-10,-2,-1,-2,-2
12.103679060935974,false,0.1977539,0.28320312,0.9863281,0.9821843,0.14093111,0.28320312,0.9863281,-6,12,0,2,0,-2,1,-1
12.106260061264038,false,0.2475586,0.2915039,0.984375,0.9802014,0.14716144,0.2915039,0.984375,0,-3,1,1,-1,-1,-1,0
12.134959101676941,false,0.28125,0.3388672,0.93310547,0.9778128,0.15552229,0.3388672,0.93310547,7,-8,4,14,-4,-2,-1,-1
12.163527011871338,false,0.28515625,0.38427734,0.88916016,0.97543144,0.16321279,0.38427734,0.88916016,-3,2,3,1,1,0,-1,-1
12.167590022087097,false,0.30029297,0.3828125,0.8964844,0.97328156,0.16900894,0.3828125,0.8964844,8,0,4,19,1,-1,0,3
12.194889068603516,false,0.3359375,0.34960938,0.89404297,0.97090614,0.17554072,0.34960938,0.89404297,-4,-8,-3,-9,0,0,0,0
12.223388075828552,false,0.35791016,0.3486328,0.88427734,0.96796507,0.18487711,0.3486328,0.88427734,-2,4,0,-21,4,2,3,0
12.225834012031555,false,0.37109375,0.36767578,0.8466797,0.9644274,0.19684061,0.36767578,0.8466797,3,-6,-3,-2,-5,-1,-1,0
12.254440069198608,false,0.3623047,0.37939453,0.8334961,0.9606286,0.20936309,0.37939453,0.8334961,0,1,-2,4,-1,0,-3,-2
12.284167051315308,false,0.37548828,0.39013672,0.8125,0.9566411,0.22193243,0.39013672,0.8125,-6,-2,0,4,1,-2,0,-1
12.28631603717804,false,0.3955078,0.4038086,0.7963867,0.95244616,0.23451026,0.4038086,0.7963867,-1,-6,1,5,-1,0,-2,-4
12.313664078712463,false,0.4091797,0.43017578,0.77978516,0.9480489,0.24683942,0.43017578,0.77978516,3,5,-2,-2,0,0,1,0
12.34302306175232,false,0.42871094,0.46484375,0.7680664,0.9435898,0.25843582,0.46484375,0.7680664,-4,-7,0,-6,-3,-2,-1,-1
12.344856023788452,false,0.4453125,0.48828125,0.7324219,0.9391885,0.26862732,0.48828125,0.7324219,-4,-6,-1,-3,0,0,0,-1
12.373584032058716,false,0.49267578,0.5102539,0.73828125,0.9348295,0.2778365,0.5102539,0.73828125,-8,-4,2,10,2,-2,-1,-1
12.402867078781128,false,0.5283203,0.4975586,0.6875,0.93035156,0.2865766,0.4975586,0.6875,1,-2,-3,-8,-3,0,-2,0
12.404734015464783,false,0.5263672,0.5024414,0.6635742,0.9259009,0.2942691,0.5024414,0.6635742,0,3,-1,-2,0,0,-1,0
12.433269023895264,false,0.51904297,0.49951172,0.6582031,0.92125005,0.3014068,0.49951172,0.6582031,5,-3,-8,-1,0,0,0,0
12.463325023651123,false,0.54785156,0.50634766,0.6694336,0.9161356,0.30904087,0.50634766,0.6694336,-5,-14,-1,-1,-5,-3,-3,-4
12.465339064598083,false,0.54296875,0.50634766,0.64501953,0.91071564,0.31677598,0.50634766,0.64501953,-3,-2,-2,1,-5,-1,-3,-9
12.493256092071533,false,0.52734375,0.5253906,0.62109375,0.90479225,0.32519788,0.5253906,0.62109375,4,0,1,-3,0,2,1,2
12.522904992103577,false,0.56591797,0.53271484,0.6298828,0.89856774,0.33392638,0.53271484,0.6298828,-5,5,0,2,1,0,-1,0
12.524527072906494,false,0.5834961,0.52001953,0.5996094,0.89233667,0.34191996,0.52001953,0.5996094,-1,1,7,12,4,0,1,-1
12.553242087364197,false,0.5913086,0.50439453,0.56152344,0.88614655,0.34889197,0.50439453,0.56152344,0,3,-2,-4,-1,-3,-2,-1
12.583640098571777,false,0.61621094,0.49853516,0.5756836,0.8802912,0.35432607,0.49853516,0.5756836,0,-3,-1,-4,-3,-3,-3,-1
12.585300087928772,false,0.6899414,0.47021484,0.56640625,0.8742519,0.35975987,0.47021484,0.56640625,4,0,-1,-5,-6,-2,3,2
12.613172054290771,false,0.6850586,0.4638672,0.51171875,0.8683466,0.36464942,0.4638672,0.51171875,-2,0,-2,-7,1,0,-3,-2
12.643378019332886,false,0.6972656,0.46728516,0.46777344,0.86257225,0.36835718,0.46728516,0.46777344,-6,-5,-2,-1,0,-1,-1,6
12.64528203010559,false,0.71435547,0.45751953,0.43310547,0.85710573,0.3706271,0.45751953,0.43310547,0,-4,-2,-7,-4,0,0,2
12.673289060592651,false,0.7402344,0.45410156,0.4038086,0.85153913,0.37220883,0.45410156,0.4038086,1,0,-1,-2,-2,1,0,-5
12.70387601852417,false,0.74902344,0.47265625,0.38085938,0.8457964,0.37409875,0.47265625,0.38085938,0,-4,-2,2,-1,0,0,0
12.705947995185852,false,0.7558594,0.5058594,0.36572266,0.8402395,0.37586772,0.5058594,0.36572266,3,2,0,2,2,-1,-1,1
12.733328104019165,false,0.7944336,0.5151367,0.36083984,0.834977,0.37744865,0.5151367,0.36083984,-4,-1,-1,-2,-5,-2,0,-6
12.763478994369507,false,0.828125,0.51660156,0.3486328,0.8302519,0.37807527,0.51660156,0.3486328,1,-2,-5,-4,-1,-1,-2,-1
12.765491008758545,false,0.8364258,0.51464844,0.32373047,0.82612175,0.3774464,0.51464844,0.32373047,3,2,1,-2,3,0,1,1
12.793381094932556,false,0.80908203,0.5029297,0.3100586,0.82265383,0.37555933,0.5029297,0.3100586,-7,-1,-2,0,0,-2,-1,-1
12.823405027389526,false,0.7963867,0.48388672,0.3017578,0.81941015,0.3731139,0.48388672,0.3017578,3,0,-1,2,0,-1,-1,1
12.825323104858398,false,0.78466797,0.44628906,0.28710938,0.8159453,0.37055683,0.44628906,0.28710938,-2,1,3,1,-1,-2,-1,-2
12.853268027305603,false,0.7729492,0.43652344,0.27441406,0.8120269,0.3687203,0.43652344,0.27441406,1,-1,0,5,2,0,-1,0
12.883517026901245,false,0.7636719,0.4736328,0.26416016,0.80789435,0.3673246,0.4736328,0.26416016,-4,0,-3,0,-1,0,0,1
12.885459065437317,false,0.7319336,0.48291016,0.24511719,0.80398846,0.36549369,0.48291016,0.24511719,3,1,-3,-4,-9,-2,0,2
12.913441061973572,false,0.71435547,0.4658203,0.22363281,0.7999743,0.3633639,0.4658203,0.22363281,9,5,1,3,3,0,-1,-2
12.943397998809814,false,0.6923828,0.44677734,0.19873047,0.7957921,0.36096907,0.44677734,0.19873047,1,-5,-3,-1,1,1,0,0
12.945321083068848,false,0.6738281,0.44091797,0.171875,0.7909687,0.35907623,0.44091797,0.171875,-5,-3,0,-1,-2,0,1,-2
12.973152041435242,false,0.6533203,0.4711914,0.12109375,0.78480005,0.35846403,0.4711914,0.12109375,-6,-3,1,0,1,0,-2,-5
13.003267049789429,false,0.6689453,0.5546875,0.12890625,0.77786005,0.35975417,0.5546875,0.12890625,-3,-4,0,-1,1,-1,-2,0
13.005186080932617,false,0.70214844,0.64746094,0.12060547,0.77044964,0.36151257,0.64746094,0.12060547,-6,0,-1,0,2,1,-1,-3
13.033282995223999,false,0.71240234,0.6411133,0.1616211,0.7652309,0.35859707,0.6411133,0.1616211,1,-1,-2,-1,1,-2,-1,5
13.063300013542175,false,0.72558594,0.52441406,0.1508789,0.76015866,0.35438263,0.52441406,0.1508789,-6,-6,-2,-6,-4,-2,-5,-9
13.06549608707428,false,0.70947266,0.5048828,0.14794922,0.75426155,0.35247293,0.5048828,0.14794922,8,2,-2,1,-3,1,1,2
13.093252062797546,false,0.6582031,0.5751953,0.110839844,0.74714464,0.3538271,0.5751953,0.110839844,-10,-5,0,-1,1,2,1,-3
13.123448014259338,false,0.6660156,0.6904297,0.06542969,0.7400445,0.35454997,0.6904297,0.06542969,-2,-1,1,-1,2,1,1,-2
13.153362035751343,false,0.7319336,0.73779297,0.037109375,0.7340314,0.3516954,0.73779297,0.037109375,0,-2,-2,-3,-3,-1,-4,-3
13.155301094055176,false,0.75683594,0.6567383,0.028808594,0.7281591,0.34595188,0.6567383,0.028808594,4,4,-1,2,-1,0,3,3
13.183309078216553,false,0.76416016,0.5751953,0.03515625,0.7211265,0.34087953,0.5751953,0.03515625,-4,-5,0,-1,2,-1,-1,-3
13.185165047645569,false,0.7583008,0.5649414,0.017089844,0.7123719,0.33766097,0.5649414,0.017089844,-1,1,0,1,0,-2,-6,-5
13.213203072547913,false,0.78222656,0.58447266,0.04736328,0.70290047,0.33564168,0.58447266,0.04736328,-2,-1,-1,2,0,-3,0,-3
13.243279099464417,false,0.82177734,0.5996094,0.04638672,0.69318247,0.33447564,0.5996094,0.04638672,-5,2,2,-3,-1,-1,0,0
13.245207071304321,false,0.7495117,0.62060547,-0.040039062,0.6825113,0.3338092,0.62060547,-0.040039062,-3,-3,-3,-3,-2,1,0,-2
13.273316025733948,false,0.6772461,0.62353516,-0.08984375,0.67078114,0.3333764,0.62353516,-0.08984375,5,1,0,-1,0,-2,0,3
13.303405046463013,false,0.71875,0.5683594,-0.080078125,0.6590753,0.3321012,0.5683594,-0.080078125,-4,-3,0,-2,0,1,1,3
13.305285096168518,false,0.80322266,0.44335938,-0.08544922,0.64726496,0.33074293,0.44335938,-0.08544922,-3,-2,-1,-1,-3,-1,-1,-3
13.333303093910217,false,0.7866211,0.51464844,-0.09814453,0.63414335,0.3322081,0.51464844,-0.09814453,7,0,-3,0,-1,-2,1,6
13.363821029663086,false,0.73291016,0.64990234,-0.1508789,0.6196521,0.33668253,0.64990234,-0.1508789,22,4,-5,-1,2,-3,1,12
13.366231083869934,false,0.6767578,0.69384766,-0.24267578,0.60552603,0.34008577,0.69384766,-0.24267578,-19,-9,0,1,-2,-1,-3,-13
13.393259048461914,false,0.69384766,0.6245117,-0.21923828,0.5942282,0.33904454,0.6245117,-0.21923828,6,-4,-1,2,-1,-4,0,4
13.453227996826172,false,0.73828125,0.48632812,-0.22558594,0.58515555,0.33539477,0.48632812,-0.22558594,-12,-3,2,-3,-1,1,-1,-6
13.484149098396301,false,0.6855469,0.45654297,-0.28808594,0.5759458,0.3324079,0.45654297,-0.28808594,-12,-1,-3,-4,-1,-3,0,-6
13.513428092002869,false,0.6645508,0.60839844,-0.38378906,0.53642976,0.3301341,0.60839844,-0.38378906,17,1,-4,-1,-6,-5,-2,9
13.5434730052948,false,0.6928711,0.5732422,-0.36914062,0.52794075,0.32927635,0.5732422,-0.36914062,4,-1,-2,0,3,2,1,1
13.545453071594238,false,0.72509766,0.56103516,-0.38427734,0.51995754,0.3293451,0.56103516,-0.38427734,4,1,-1,-2,0,-1,1,3
13.573385000228882,false,0.71484375,0.6279297,-0.4091797,0.51261693,0.3305552,0.6279297,-0.4091797,12,1,-2,1,-2,-3,-2,4
13.603353023529053,false,0.67041016,0.66552734,-0.45898438,0.50657934,0.3305583,0.66552734,-0.45898438,-4,-2,-1,3,0,-1,-2,-3
13.605322003364563,false,0.66064453,0.62353516,-0.46289062,0.50250363,0.3286751,0.62353516,-0.46289062,-10,-4,0,-3,-2,0,-3,-4
13.633361101150513,false,0.69873047,0.55371094,-0.44482422,0.4996276,0.32677817,0.55371094,-0.44482422,4,1,-2,-2,-3,-1,0,1
13.66362202167511,false,0.6958008,0.5805664,-0.43652344,0.49693206,0.32652745,0.5805664,-0.43652344,0,-1,0,2,-1,-1,-2,-3
13.665431022644043,false,0.68066406,0.6142578,-0.4482422,0.49498633,0.3274478,0.6142578,-0.4482422,-1,-5,0,-3,0,0,1,0
13.693252086639404,false,0.6796875,0.61083984,-0.4477539,0.49499807,0.3276387,0.61083984,-0.4477539,17,9,-3,-2,-3,-3,1,9
13.723459005355835,false,0.6645508,0.5913086,-0.45263672,0.49620333,0.32720125,0.5913086,-0.45263672,-8,0,-2,-3,0,3,1,-5
13.725394010543823,false,0.6640625,0.5600586,-0.4399414,0.49773416,0.32702142,0.5600586,-0.4399414,-5,-4,-2,-1,-1,-1,1,-1
13.753355026245117,false,0.69384766,0.55029297,-0.4165039,0.5004179,0.32720336,0.55029297,-0.4165039,7,11,0,-2,-3,-4,1,2
13.783498048782349,false,0.66308594,0.5991211,-0.44628906,0.50370884,0.32732224,0.5991211,-0.44628906,-7,-4,1,0,0,0,-3,-5
13.785457015037537,false,0.6694336,0.62646484,-0.43945312,0.5079888,0.32622856,0.62646484,-0.43945312,-9,0,2,2,2,-2,-3,-4
13.813202023506165,false,0.67529297,0.60791016,-0.4248047,0.5139922,0.32331273,0.60791016,-0.4248047,-8,-7,1,-3,0,1,-1,-3
13.843466997146606,false,0.69433594,0.54785156,-0.39111328,0.5212981,0.3195171,0.54785156,-0.39111328,0,-7,-3,0,0,-2,-1,1
13.845324039459229,false,0.7348633,0.5410156,-0.35009766,0.52923167,0.31707513,0.5410156,-0.35009766,-1,0,1,-2,3,1,-1,-2
13.873383045196533,false,0.75683594,0.61376953,-0.31933594,0.53850925,0.3159767,0.61376953,-0.31933594,6,3,0,3,0,-2,-3,-2
13.90334701538086,false,0.71435547,0.6894531,-0.36132812,0.5494453,0.31354147,0.6894531,-0.36132812,-5,-11,-5,-4,1,1,4,2
13.90552008152008,false,0.6411133,0.6972656,-0.40820312,0.5624313,0.30584297,0.6972656,-0.40820312,-7,-3,-1,1,-3,1,0,-2
13.933290004730225,false,0.7871094,0.63378906,-0.31835938,0.5759936,0.29632816,0.63378906,-0.31835938,14,-2,-3,2,-2,-2,-1,3
13.96331000328064,false,0.9350586,0.6142578,-0.19580078,0.5919398,0.28760782,0.6142578,-0.19580078,-8,2,2,1,2,1,-8,-10
13.965301990509033,false,0.9658203,0.6323242,-0.119628906,0.61145824,0.2788733,0.6323242,-0.119628906,2,-1,0,-3,-3,-3,1,3
13.993422031402588,false,0.92333984,0.68847656,-0.1352539,0.6340495,0.26831743,0.68847656,-0.1352539,-2,-1,-2,-2,-3,-1,0,0
14.02340304851532,false,0.7607422,0.81884766,-0.17236328,0.65748584,0.25330174,0.81884766,-0.17236328,-4,1,-1,-1,-3,-1,-1,-4
14.02534008026123,false,0.7426758,0.8027344,-0.08300781,0.67964196,0.23590624,0.8027344,-0.08300781,5,-2,-3,-3,-2,-1,1,-8
14.05337405204773,false,0.8125,0.64404297,0.045898438,0.6999551,0.22033815,0.64404297,0.045898438,2,2,-2,-2,1,1,0,2
14.083330035209656,false,0.78564453,0.5024414,0.15722656,0.7186473,0.20905104,0.5024414,0.15722656,1,-1,-4,-3,0,3,2,5
14.085264086723328,false,0.74121094,0.45947266,0.24658203,0.73486775,0.20422487,0.45947266,0.24658203,-5,1,0,-2,-1,-2,-2,-4
14.11330509185791,false,0.7006836,0.47314453,0.30371094,0.7484964,0.20612186,0.47314453,0.30371094,2,8,1,1,-2,0,-1,0
14.14343810081482,false,0.6542969,0.52685547,0.3178711,0.7598926,0.21319717,0.52685547,0.3178711,-10,-12,-2,0,1,-1,-1,2
14.145344018936157,false,0.6274414,0.5917969,0.3178711,0.76973134,0.22192872,0.5917969,0.3178711,2,-3,-1,-1,0,1,-1,0
14.17335307598114,false,0.57666016,0.640625,0.2866211,0.778702,0.22980194,0.640625,0.2866211,-1,-2,-3,-2,-3,-4,-3,-1
14.20334005355835,false,0.5317383,0.6772461,0.2915039,0.7871851,0.2346235,0.6772461,0.2915039,-2,-3,2,5,-1,0,0,-1
14.20528507232666,false,0.53808594,0.62597656,0.35058594,0.7968314,0.23401392,0.62597656,0.35058594,-2,-2,1,1,-1,-2,-2,-3
14.233238101005554,false,0.5625,0.53466797,0.4008789,0.8074017,0.22986656,0.53466797,0.4008789,1,5,0,-3,-1,0,0,2
14.263402104377747,false,0.5786133,0.46240234,0.4633789,0.81788456,0.22546758,0.46240234,0.4633789,-1,2,-1,0,0,-1,-2,-1
14.265545010566711,false,0.5805664,0.42333984,0.5004883,0.8273543,0.22363897,0.42333984,0.5004883,-1,6,4,1,-1,-2,-3,-3
14.293302059173584,false,0.57910156,0.42138672,0.5205078,0.8356854,0.22570586,0.42138672,0.5205078,-6,-8,-2,-6,0,-3,-2,-3
14.323415040969849,false,0.57714844,0.4453125,0.54003906,0.8432197,0.23029083,0.4453125,0.54003906,2,6,0,-7,-1,0,1,0
14.325254082679749,false,0.5605469,0.4555664,0.5288086,0.850357,0.23559992,0.4555664,0.5288086,1,-19,-5,1,-2,0,0,0
14.353302001953125,false,0.5371094,0.4711914,0.5288086,0.8576926,0.23950937,0.4711914,0.5288086,4,-2,-3,2,-3,-1,2,1
14.383992075920105,false,0.5336914,0.47021484,0.5439453,0.86535573,0.24127176,0.47021484,0.5439453,0,-1,-3,0,2,0,0,0
14.385261058807373,false,0.5419922,0.43554688,0.56933594,0.87282884,0.24274407,0.43554688,0.56933594,-1,6,4,-3,-1,-1,1,0
14.4135240316391,false,0.53222656,0.453125,0.56884766,0.8797849,0.24500184,0.453125,0.56884766,-8,-9,-8,-6,-3,-2,-4,-4
14.44337809085846,false,0.5161133,0.50097656,0.56933594,0.88653773,0.24700987,0.50097656,0.56933594,5,12,2,-4,4,1,1,3
14.445369005203247,false,0.51708984,0.5004883,0.57714844,0.8928822,0.2485959,0.5004883,0.57714844,0,1,2,2,-2,-2,-2,0
14.473305106163025,false,0.50878906,0.5161133,0.6196289,0.8984524,0.25140798,0.5161133,0.6196289,-4,-13,-2,5,-1,2,0,-3
14.503306031227112,false,0.4711914,0.47607422,0.6254883,0.9036801,0.25477615,0.47607422,0.6254883,-4,-25,2,-4,0,1,1,0
14.505330085754395,false,0.4819336,0.46826172,0.53564453,0.9082286,0.25806388,0.46826172,0.53564453,-7,-11,-13,-2,-1,-2,-4,-5
14.533315062522888,false,0.4453125,0.53808594,0.5209961,0.91282517,0.25831336,0.53808594,0.5209961,4,19,8,1,-3,0,1,-3
14.56354308128357,false,0.4555664,0.5600586,0.6040039,0.91737884,0.25635338,0.5600586,0.6040039,0,-1,-6,-3,-4,-3,-1,3
14.565367102622986,false,0.54785156,0.48583984,0.66308594,0.9206287,0.25690687,0.48583984,0.66308594,1,4,-3,2,2,-1,-2,1
14.593416094779968,false,0.6069336,0.47021484,0.6152344,0.9224069,0.2599,0.47021484,0.6152344,0,3,0,-2,-1,-1,-2,-1
14.623297095298767,false,0.5673828,0.5229492,0.5756836,0.9235349,0.26257664,0.5229492,0.5756836,-3,-27,-12,-3,0,-3,-1,-2
14.625343084335327,false,0.58447266,0.5629883,0.5722656,0.9245901,0.26258162,0.5629883,0.5722656,-1,9,3,-2,-3,-1,-1,-1
14.653459072113037,false,0.62158203,0.54296875,0.57128906,0.92617,0.25867328,0.54296875,0.57128906,0,-3,-3,4,1,-1,1,1
14.683342099189758,false,0.6542969,0.48486328,0.5932617,0.9271244,0.25378427,0.48486328,0.5932617,1,4,6,-3,-3,0,0,0
14.685375094413757,false,0.6586914,0.39648438,0.59765625,0.92711204,0.24946389,0.39648438,0.59765625,-5,-2,-2,-1,-1,1,-2,-4
14.713425040245056,false,0.68310547,0.40722656,0.58447266,0.9252422,0.24890412,0.40722656,0.58447266,1,15,5,1,0,-2,1,1
14.74327802658081,false,0.71435547,0.54003906,0.6064453,0.92192245,0.25172195,0.54003906,0.6064453,0,2,-3,-2,-2,-2,-2,-2
14.745328068733215,false,0.7324219,0.5600586,0.62158203,0.9172532,0.25806138,0.5600586,0.62158203,2,-17,-21,2,2,-1,-1,2
14.773308038711548,false,0.6826172,0.5209961,0.5073242,0.91175884,0.26611784,0.5209961,0.5073242,1,2,0,-6,-3,-1,0,1
14.80339801311493,false,0.66503906,0.5126953,0.49072266,0.90656793,0.27246478,0.5126953,0.49072266,-1,7,0,1,-1,0,-1,0
14.805335998535156,false,0.65478516,0.4765625,0.5366211,0.9012028,0.27893645,0.4765625,0.5366211,-1,4,23,5,0,0,0,-1
14.83326005935669,false,0.7084961,0.5341797,0.5366211,0.89494205,0.28663537,0.5341797,0.5366211,0,-5,-13,-4,-2,0,-1,0
14.863407015800476,false,0.6801758,0.52783203,0.58447266,0.88981557,0.29121348,0.52783203,0.58447266,-3,10,1,-4,-2,-3,-4,-2
14.865308046340942,false,0.6645508,0.46875,0.59765625,0.8853578,0.2929219,0.46875,0.59765625,-2,5,2,0,-2,1,-2,1
14.893264055252075,false,0.6508789,0.38134766,0.61865234,0.8816918,0.2923103,0.38134766,0.61865234,-4,-25,-8,-4,-2,-2,-2,-3
14.92333710193634,false,0.6298828,0.32861328,0.60009766,0.8779989,0.2916287,0.32861328,0.60009766,1,7,8,3,1,0,1,0
14.925319075584412,false,0.6123047,0.3149414,0.55371094,0.8740832,0.29140177,0.3149414,0.55371094,2,12,5,-1,1,1,0,-1
14.9533931016922,false,0.6040039,0.33935547,0.55029297,0.8700338,0.29182205,0.33935547,0.55029297,2,-5,-6,0,-2,2,-1,-2
14.983550071716309,false,0.6347656,0.34033203,0.5576172,0.86590517,0.29315165,0.34033203,0.5576172,-4,4,2,0,0,-1,0,1
14.98536205291748,false,0.6298828,0.32861328,0.54833984,0.86195564,0.2946836,0.32861328,0.54833984,-1,0,17,-4,-2,-1,0,0
15.013397097587585,false,0.5966797,0.2939453,0.58496094,0.858883,0.29518571,0.2939453,0.58496094,0,-2,-3,-2,-2,0,-1,0
15.043350100517273,false,0.5800781,0.24658203,0.5805664,0.855873,0.29517913,0.24658203,0.5805664,1,-8,-9,0,-13,-9,1,2
15.045347094535828,false,0.5986328,0.3486328,0.6152344,0.8536544,0.2951718,0.3486328,0.6152344,-2,0,-2,0,3,3,-1,7
15.073401093482971,false,0.6269531,0.3491211,0.6254883,0.8530431,0.2925469,0.3491211,0.6254883,0,-1,1,-2,-3,-1,0,-6
15.103349089622498,false,0.67822266,0.29541016,0.59277344,0.85309154,0.28833115,0.29541016,0.59277344,1,-1,-8,1,8,2,-2,-3
15.105269074440002,false,0.7207031,0.26660156,0.57958984,0.8536246,0.28328007,0.26660156,0.57958984,-3,-3,0,-1,3,1,-2,2
15.13325810432434,false,0.72314453,0.24658203,0.5498047,0.8540157,0.27844623,0.24658203,0.5498047,1,2,-3,-1,-5,-4,1,-3
15.194315075874329,false,0.7216797,0.2446289,0.55322266,0.85414255,0.27466354,0.2446289,0.55322266,2,-1,3,-1,-5,-10,-14,-21
15.196613073348999,false,0.70947266,0.2475586,0.5761719,0.85428053,0.27204403,0.2475586,0.5761719,-2,-1,2,-3,3,3,0,-2
15.223363041877747,false,0.69970703,0.28710938,0.640625,0.8554802,0.2677648,0.28710938,0.640625,6,-2,-9,-1,1,1,-18,24
15.225914001464844,false,0.7685547,0.27539062,0.6069336,0.8566267,0.26434273,0.27539062,0.6069336,4,3,7,1,-9,-8,-3,19
15.25410008430481,false,0.81347656,0.27441406,0.5864258,0.85757595,0.26130125,0.27441406,0.5864258,4,3,7,-2,-5,-4,-1,28
15.283607006072998,false,0.7944336,0.2841797,0.5751953,0.8586017,0.25903928,0.2841797,0.5751953,17,4,1,1,11,7,7,58
15.286033034324646,false,0.75,0.29296875,0.5703125,0.8599263,0.25756896,0.29296875,0.5703125,6,-1,-5,0,0,0,-21,18
15.313924074172974,false,0.74560547,0.2841797,0.5673828,0.8612234,0.25604764,0.2841797,0.5673828,-2,-1,-1,-1,-4,-1,-14,-12
15.343306064605713,false,0.7714844,0.27197266,0.54345703,0.86213493,0.25476468,0.27197266,0.54345703,-7,-1,-9,-1,5,7,30,15
15.345968008041382,false,0.7421875,0.26123047,0.5493164,0.86291635,0.2542118,0.26123047,0.5493164,1,-2,-1,-1,3,0,-13,-6
15.373962998390198,false,0.68652344,0.26513672,0.54589844,0.86380905,0.25342956,0.26513672,0.54589844,-5,3,1,0,-5,-4,7,-9
15.403802990913391,false,0.6801758,0.24853516,0.5908203,0.8647724,0.25220492,0.24853516,0.5908203,-1,-8,-14,-14,-15,-3,-11,-2
15.406038999557495,false,0.70654297,0.21191406,0.6020508,0.86552495,0.25099003,0.21191406,0.6020508,3,-3,1,-2,2,-2,-22,-4
15.433881044387817,false,0.7128906,0.2265625,0.64941406,0.8661644,0.24963796,0.2265625,0.64941406,-29,1,5,-1,-3,-11,-4,-69
15.4634610414505,false,0.67529297,0.23046875,0.63720703,0.8668586,0.24872896,0.23046875,0.63720703,2,1,4,1,2,2,-1,6
15.465870022773743,false,0.61865234,0.24511719,0.6333008,0.8679883,0.2470724,0.24511719,0.6333008,2,-3,-5,4,6,11,48,34
15.493909001350403,false,0.62890625,0.24023438,0.65966797,0.8692938,0.24408832,0.24023438,0.65966797,8,3,-3,0,2,6,-40,31
15.523413062095642,false,0.6743164,0.2109375,0.7084961,0.8704669,0.24140638,0.2109375,0.7084961,3,2,0,4,-1,-8,-7,-1
15.552990078926086,false,0.65185547,0.18603516,0.7060547,0.87153137,0.2393217,0.18603516,0.7060547,0,-5,-5,-1,2,3,-3,-12
15.554719090461731,false,0.6254883,0.2055664,0.6904297,0.87226933,0.23737006,0.2055664,0.6904297,-2,-1,4,-3,-3,-5,-1,-3
15.58327305316925,false,0.6303711,0.20458984,0.68603516,0.87272173,0.23554575,0.20458984,0.68603516,-1,2,-1,1,2,1,-13,-25
15.613153100013733,false,0.62158203,0.20166016,0.7084961,0.8730259,0.2339585,0.20166016,0.7084961,2,0,3,-1,4,1,9,-12
15.61553704738617,false,0.58740234,0.21142578,0.7001953,0.87333226,0.23273803,0.21142578,0.7001953,3,-3,1,-2,-4,-3,3,19
15.643312096595764,false,0.57177734,0.19189453,0.7114258,0.8736268,0.23102616,0.19189453,0.7114258,-1,-4,-6,-5,-4,-3,10,2
15.673124074935913,false,0.57470703,0.171875,0.7265625,0.873729,0.22870153,0.171875,0.7265625,1,3,7,3,-2,-1,-5,-6
15.674735069274902,false,0.5756836,0.1616211,0.734375,0.87363786,0.22651227,0.1616211,0.734375,-13,-4,2,-1,-2,0,0,-32
15.703302025794983,false,0.5727539,0.15820312,0.7783203,0.87336445,0.22442946,0.15820312,0.7783203,4,-1,-1,3,-1,3,-4,24
15.73314905166626,false,0.58691406,0.1586914,0.8183594,0.8728576,0.22340271,0.1586914,0.8183594,1,0,-3,4,1,-3,15,21
15.734711050987244,false,0.5463867,0.16699219,0.8232422,0.872592,0.22315307,0.16699219,0.8232422,1,0,-3,-2,-2,-3,-17,1
15.763316035270691,false,0.5288086,0.17919922,0.81103516,0.872475,0.22284919,0.17919922,0.81103516,-2,3,-1,-3,-4,1,-5,9
15.793130993843079,false,0.5546875,0.17822266,0.80029297,0.87233907,0.22199114,0.17822266,0.80029297,-2,0,0,-3,-1,1,4,-12
15.794631004333496,false,0.5703125,0.16259766,0.8022461,0.8720392,0.22101589,0.16259766,0.8022461,0,-7,0,-3,-9,-11,-11,-69
15.823411107063293,false,0.5439453,0.15722656,0.7998047,0.8713857,0.22120354,0.15722656,0.7998047,-4,-7,-9,-2,0,3,28,2
15.852991104125977,false,0.5126953,0.17871094,0.7998047,0.8706424,0.22229947,0.17871094,0.7998047,10,2,0,-1,5,5,50,-13
15.854675054550171,false,0.50927734,0.18945312,0.8256836,0.86976975,0.22351557,0.18945312,0.8256836,3,4,4,1,-11,-9,-61,38
15.88317608833313,false,0.5078125,0.19091797,0.82666016,0.86844766,0.2254741,0.19091797,0.82666016,0,-4,-1,-2,4,-1,-7,12
15.913045048713684,false,0.47460938,0.22509766,0.8203125,0.8671373,0.2280302,0.22509766,0.8203125,-8,-1,-1,-2,1,6,0,-41
15.973507046699524,false,0.44970703,0.24072266,0.82958984,0.8658882,0.23041928,0.24072266,0.82958984,3,-2,0,2,0,4,5,11
15.97552502155304,false,0.41455078,0.26220703,0.8339844,0.86495495,0.23261191,0.26220703,0.8339844,4,2,1,7,4,-2,-5,-11
16.003053069114685,false,0.39501953,0.27783203,0.8496094,0.86430067,0.23518012,0.27783203,0.8496094,2,-1,0,-1,-2,-3,-7,-10
16.003481030464172,false,0.38085938,0.24707031,0.85498047,0.86428523,0.23889917,0.24707031,0.85498047,-2,3,-2,-2,-1,-2,5,4
16.032918095588684,false,0.37353516,0.2631836,0.8642578,0.86424416,0.24043067,0.2631836,0.8642578,-8,-1,-4,-4,1,1,26,-18
16.03459405899048,false,0.38085938,0.2553711,0.85791016,0.8641543,0.24188751,0.2553711,0.85791016,3,3,1,-2,1,-4,-24,23
16.063255071640015,false,0.36132812,0.2602539,0.85839844,0.8640384,0.24335413,0.2602539,0.85839844,1,-7,0,-8,-7,-3,-8,-17
16.092936992645264,false,0.3623047,0.28076172,0.87158203,0.86363614,0.24555857,0.28076172,0.87158203,6,-1,-5,0,0,-4,-23,-1
16.09467101097107,false,0.34960938,0.32177734,0.86572266,0.86313146,0.24884994,0.32177734,0.86572266,-3,-1,-1,-1,-1,-2,11,-14
16.123438000679016,false,0.3461914,0.3359375,0.8725586,0.86289185,0.2518421,0.3359375,0.8725586,1,0,-2,1,0,2,31,25
16.152881026268005,false,0.35742188,0.32763672,0.87890625,0.8625325,0.25446877,0.32763672,0.87890625,15,-2,-1,-2,-2,0,-11,20
16.154615998268127,false,0.36132812,0.32128906,0.8696289,0.86191887,0.2573366,0.32128906,0.8696289,3,1,-1,4,1,1,1,4
16.18340802192688,false,0.3491211,0.33203125,0.8535156,0.861329,0.26045573,0.33203125,0.8535156,6,0,0,-1,-3,-4,13,69
16.213243007659912,false,0.36035156,0.33447266,0.82910156,0.8606779,0.26367834,0.33447266,0.82910156,0,1,-1,0,-1,-4,-1,22
16.214684009552002,false,0.38867188,0.3334961,0.8276367,0.8600321,0.26673815,0.3334961,0.8276367,-7,0,-3,-2,-6,-3,5,-14
16.243447065353394,false,0.3984375,0.34228516,0.84716797,0.85916436,0.27027422,0.34228516,0.84716797,-5,0,0,2,0,-2,-9,-18
16.273059010505676,false,0.39208984,0.34326172,0.8496094,0.85812753,0.27442503,0.34326172,0.8496094,-6,-1,1,-3,-2,-1,-7,-28
16.274691104888916,false,0.38232422,0.38378906,0.83203125,0.8569909,0.27894932,0.38378906,0.83203125,11,0,1,1,5,0,-11,19
16.30338406562805,false,0.3798828,0.4189453,0.8334961,0.85612756,0.2835854,0.4189453,0.8334961,-5,-4,0,-1,-2,1,4,-3
16.3330260515213,false,0.38671875,0.41845703,0.8154297,0.8556008,0.28768256,0.41845703,0.8154297,-10,-4,-3,-1,1,7,-15,-70
16.33467209339142,false,0.38378906,0.43310547,0.79296875,0.8552204,0.29140118,0.43310547,0.79296875,-3,-4,1,-1,0,-2,-9,10
16.36329209804535,false,0.3720703,0.43554688,0.78027344,0.8551535,0.29451218,0.43554688,0.78027344,5,5,0,1,-1,0,1,-3
16.39330005645752,false,0.37304688,0.4345703,0.78808594,0.85520405,0.29749942,0.4345703,0.78808594,-5,-2,0,0,2,-1,1,-3
16.395487070083618,false,0.38330078,0.42773438,0.79003906,0.85521334,0.3009208,0.42773438,0.79003906,-1,-1,-1,0,-1,-3,21,22
16.42357909679413,false,0.37841797,0.4267578,0.7817383,0.85526806,0.30470297,0.4267578,0.7817383,2,3,1,0,-1,-1,-3,0
16.45343506336212,false,0.38085938,0.44091797,0.7753906,0.85557586,0.3081831,0.44091797,0.7753906,-1,-1,-2,0,1,2,3,17
16.45539104938507,false,0.39648438,0.43115234,0.7451172,0.8563068,0.31074616,0.43115234,0.7451172,-6,-1,-5,-1,-3,-3,1,-10
16.483379006385803,false,0.39794922,0.43359375,0.74072266,0.8574414,0.31220195,0.43359375,0.74072266,-1,-2,-1,-1,1,-1,-8,-4
16.513468027114868,false,0.41015625,0.41210938,0.7260742,0.85852015,0.31343767,0.41210938,0.7260742,2,1,-2,-2,-2,0,-4,-2
16.515691995620728,false,0.44189453,0.4086914,0.73583984,0.8592167,0.31537774,0.4086914,0.73583984,-1,-4,-2,-1,-3,-3,8,-73
16.543301105499268,false,0.4350586,0.43408203,0.68359375,0.8596391,0.31897715,0.43408203,0.68359375,-8,-2,-4,-4,-2,-3,-3,19
16.573469042778015,false,0.40771484,0.484375,0.66552734,0.8609781,0.32135615,0.484375,0.66552734,6,0,0,2,1,0,-9,-17
16.575385093688965,false,0.45361328,0.46533203,0.7163086,0.863017,0.3205108,0.46533203,0.7163086,1,1,-2,-2,-3,-2,8,31
16.60355806350708,false,0.47216797,0.4399414,0.71777344,0.8647865,0.319595,0.4399414,0.71777344,5,-6,-1,-6,-3,-4,-25,35
16.6333270072937,false,0.40576172,0.47705078,0.72314453,0.86608976,0.3209458,0.47705078,0.72314453,-7,0,1,0,-1,-1,0,9
16.635300993919373,false,0.34960938,0.52490234,0.7060547,0.86714953,0.32386115,0.52490234,0.7060547,8,0,-2,1,-1,0,-18,20
16.663308024406433,false,0.3149414,0.58984375,0.71484375,0.8686399,0.32557973,0.58984375,0.71484375,-16,-1,2,-3,-1,-2,-5,-2
16.693360090255737,false,0.30078125,0.5834961,0.7133789,0.87076503,0.32520932,0.5834961,0.7133789,4,0,0,3,-1,-2,-4,-20
16.695357084274292,false,0.2998047,0.55029297,0.71728516,0.87364584,0.3228333,0.55029297,0.71728516,-4,-2,1,0,-2,1,9,-14
16.72331202030182,false,0.3256836,0.5366211,0.72265625,0.8769076,0.31909743,0.5366211,0.72265625,-3,-3,-1,0,2,4,51,-37
16.75344407558441,false,0.32470703,0.51708984,0.7060547,0.88048315,0.31373888,0.51708984,0.7060547,-1,1,0,1,-2,-2,-20,11
16.75532603263855,false,0.2915039,0.5185547,0.74121094,0.8841517,0.3078203,0.5185547,0.74121094,-24,-5,-1,-3,0,0,-5,-71
16.78328001499176,false,0.29785156,0.49316406,0.7963867,0.8875664,0.30183727,0.49316406,0.7963867,-5,0,-2,0,-3,-5,-30,28
16.81349205970764,false,0.31298828,0.453125,0.8310547,0.8903626,0.2968282,0.453125,0.8310547,17,3,-1,1,-1,0,9,43
16.815513014793396,false,0.34521484,0.515625,0.8300781,0.891861,0.29675803,0.515625,0.8300781,-1,-3,1,-4,3,2,-9,22
16.843440055847168,false,0.3232422,0.5727539,0.7871094,0.8918103,0.30036265,0.5727539,0.7871094,5,2,-2,0,-1,-3,-5,39
16.903786063194275,false,0.2944336,0.59472656,0.7729492,0.8924397,0.30183396,0.59472656,0.7729492,2,-1,-3,1,-1,1,13,42
16.90618109703064,false,0.33203125,0.5410156,0.76660156,0.8935435,0.30030972,0.5410156,0.76660156,-11,-5,2,-4,1,5,-8,-19
16.933737993240356,false,0.35986328,0.4086914,0.7919922,0.89619523,0.29364538,0.4086914,0.7919922,4,4,-2,2,-1,-2,-7,2
16.93529510498047,false,0.43115234,0.37304688,0.7944336,0.8963474,0.2927397,0.37304688,0.7944336,-1,-4,12,-1,-1,1,12,-30
16.963308095932007,false,0.41210938,0.44677734,0.7783203,0.8954666,0.29547775,0.44677734,0.7783203,2,2,-5,1,0,3,61,20
16.993360996246338,false,0.38232422,0.4873047,0.74902344,0.8947058,0.29786903,0.4873047,0.74902344,2,2,0,-2,0,-3,1,8
16.995464086532593,false,0.3959961,0.44921875,0.72998047,0.8946279,0.29822963,0.44921875,0.72998047,-16,-6,2,-4,0,-1,-21,-32
17.023452043533325,false,0.4243164,0.40820312,0.7216797,0.89459115,0.29762736,0.40820312,0.7216797,1,0,-3,-3,0,-2,-22,-12
17.053508043289185,false,0.46923828,0.40234375,0.7089844,0.89399076,0.2978545,0.40234375,0.7089844,9,-2,-5,-3,-3,-3,-10,-3
17.055333018302917,false,0.49804688,0.38183594,0.7114258,0.8931506,0.2985307,0.38183594,0.7114258,16,1,-8,1,-1,-7,-6,21
17.08356201648712,false,0.5,0.39208984,0.71435547,0.89230955,0.299817,0.39208984,0.71435547,-4,-3,1,1,1,0,1,-8
17.113323092460632,false,0.48242188,0.42626953,0.70410156,0.891886,0.30085588,0.42626953,0.70410156,-2,0,2,0,0,1,28,11
17.115703105926514,false,0.4975586,0.4477539,0.7138672,0.89183336,0.3008587,0.4477539,0.7138672,0,0,-5,-3,-3,-1,-5,-24
17.143380999565125,false,0.5415039,0.4243164,0.71972656,0.89194036,0.29975495,0.4243164,0.71972656,1,-1,-2,1,0,0,-2,-12
17.173423051834106,false,0.5136719,0.39257812,0.71240234,0.89260876,0.29792282,0.39257812,0.71240234,10,1,1,1,-2,0,26,13
17.17531406879425,false,0.5385742,0.4086914,0.7026367,0.8929648,0.29602727,0.4086914,0.7026367,-4,0,0,-3,-1,-2,-14,8
17.203423023223877,false,0.4868164,0.38671875,0.7109375,0.8940582,0.29309583,0.38671875,0.7109375,-4,-4,0,-2,-1,0,-27,-2
17.233365058898926,false,0.54052734,0.38916016,0.7128906,0.89491934,0.2902903,0.38916016,0.7128906,-1,3,-4,0,-1,-2,11,12
17.235329031944275,false,0.54589844,0.40185547,0.7104492,0.89569736,0.28768036,0.40185547,0.7104492,-4,-1,0,1,2,-2,-2,-8
17.263321042060852,false,0.52441406,0.41064453,0.70458984,0.8968102,0.2846135,0.41064453,0.70458984,0,-4,-2,-2,-3,0,-6,-11
17.293483018875122,false,0.51953125,0.4477539,0.69921875,0.898283,0.28058755,0.4477539,0.69921875,-30,-4,-2,-5,-4,-6,-66,-29
17.2953439950943,false,0.47851562,0.4584961,0.7036133,0.90041167,0.2754581,0.4584961,0.7036133,8,1,-1,0,-2,-2,6,14
17.323424100875854,false,0.39453125,0.4819336,0.7475586,0.903413,0.268381,0.4819336,0.7475586,0,0,1,0,0,-1,0,-4
17.353345036506653,false,0.39697266,0.39990234,0.7998047,0.9066106,0.2602088,0.39990234,0.7998047,-5,1,-2,1,0,2,32,27
17.355454087257385,false,0.39892578,0.30419922,0.8720703,0.9095961,0.2516008,0.30419922,0.8720703,5,0,-1,-3,0,-2,-23,-6
17.38318109512329,false,0.3515625,0.2998047,0.89160156,0.91178435,0.24592176,0.2998047,0.89160156,6,1,2,3,0,-1,3,9
17.413433074951172,false,0.36279297,0.30078125,0.8754883,0.91330194,0.24231829,0.30078125,0.8754883,-19,-4,-2,-2,-1,-3,-13,-6
17.415325045585632,false,0.3857422,0.28466797,0.84716797,0.91425616,0.24013111,0.28466797,0.84716797,2,-3,0,0,-2,0,13,-1
17.443095088005066,false,0.39453125,0.30859375,0.8100586,0.91474557,0.23950501,0.30859375,0.8100586,4,-1,1,-2,-2,-1,18,-20
17.473427057266235,false,0.39746094,0.3305664,0.77978516,0.9150753,0.23926727,0.3305664,0.77978516,3,-3,-1,-1,-2,1,17,1
17.475247025489807,false,0.40429688,0.36376953,0.7714844,0.91531974,0.23926736,0.36376953,0.7714844,1,0,-1,-2,2,2,23,3
17.503430008888245,false,0.40966797,0.40527344,0.7807617,0.9157514,0.23884124,0.40527344,0.7807617,11,2,-3,0,0,-2,0,10
17.53324007987976,false,0.40478516,0.39697266,0.77783203,0.91659474,0.23676307,0.39697266,0.77783203,0,-2,-3,-3,-3,-1,-4,-17
17.535372018814087,false,0.3779297,0.3828125,0.7973633,0.9179319,0.23303837,0.3828125,0.7973633,1,-2,-1,0,0,-2,-8,9
17.563363075256348,false,0.37548828,0.35595703,0.8256836,0.9194068,0.22846308,0.35595703,0.8256836,-14,-2,0,-1,-2,-2,-5,-26
17.593515038490295,false,0.3696289,0.31298828,0.85839844,0.92091733,0.22327118,0.31298828,0.85839844,-3,-1,1,-1,-2,-2,-18,13
17.59541404247284,false,0.37939453,0.2607422,0.8574219,0.92208284,0.21875587,0.2607422,0.8574219,8,1,-2,0,-1,0,11,-7
17.6234130859375,false,0.3725586,0.2421875,0.84277344,0.9229667,0.21534467,0.2421875,0.84277344,-7,-3,-2,-2,-1,-3,-22,-74
17.653377056121826,false,0.3779297,0.24902344,0.83203125,0.92358845,0.21308884,0.24902344,0.83203125,-4,-1,0,-2,-2,1,19,9
17.655346035957336,false,0.38916016,0.27539062,0.83203125,0.9240307,0.21155232,0.27539062,0.83203125,-4,-4,-1,-5,0,2,4,17
17.683288097381592,false,0.37304688,0.29052734,0.8310547,0.92442006,0.21033685,0.29052734,0.8310547,5,2,-1,0,0,-2,-2,21
17.71350109577179,false,0.39013672,0.3046875,0.8652344,0.92471534,0.20941904,0.3046875,0.8652344,6,-1,-1,1,0,0,3,-8
17.715419054031372,false,0.3852539,0.30566406,0.8676758,0.92492557,0.20869271,0.30566406,0.8676758,7,2,-3,1,-1,0,1,10
17.743386030197144,false,0.3828125,0.28955078,0.859375,0.92505604,0.2080842,0.28955078,0.859375,6,1,0,0,-1,-1,5,10
17.77345299720764,false,0.3720703,0.27490234,0.8466797,0.92507476,0.20752534,0.27490234,0.8466797,-14,-1,0,-2,-2,-1,-3,-23
17.775307059288025,false,0.39013672,0.2602539,0.84765625,0.92494243,0.20740098,0.2602539,0.84765625,-3,-2,-1,-2,-2,-3,-13,1
17.803381085395813,false,0.4008789,0.25585938,0.8486328,0.9247269,0.20759052,0.25585938,0.8486328,8,-3,-2,-2,-3,-3,-10,-14
17.833415031433105,false,0.40771484,0.2763672,0.828125,0.92437017,0.20869134,0.2763672,0.828125,-1,-2,1,0,-1,2,8,6
17.835329055786133,false,0.3955078,0.2993164,0.82421875,0.92410254,0.20966263,0.2993164,0.82421875,0,2,-1,1,0,-1,11,13
17.86345410346985,false,0.39892578,0.3334961,0.828125,0.9239333,0.21058136,0.3334961,0.828125,-4,-2,0,-1,-1,0,-11,3
17.893383026123047,false,0.41064453,0.3178711,0.82421875,0.923934,0.21070358,0.3178711,0.82421875,0,-1,0,1,-1,0,8,2
17.895376086235046,false,0.37548828,0.31445312,0.8354492,0.9242576,0.20973115,0.31445312,0.8354492,0,-1,-1,-4,0,-2,-14,-50
17.923428058624268,false,0.39697266,0.28759766,0.8383789,0.9244073,0.20905216,0.28759766,0.8383789,1,1,0,0,0,1,30,25
17.953545093536377,false,0.37402344,0.2939453,0.8413086,0.9246496,0.20819722,0.2939453,0.8413086,2,0,-2,1,-1,1,4,24
17.955345034599304,false,0.38867188,0.28320312,0.8466797,0.9247905,0.20765212,0.28320312,0.8466797,1,-2,0,0,1,1,6,2
17.983296990394592,false,0.4033203,0.26953125,0.8442383,0.92489195,0.20722024,0.26953125,0.8442383,-2,0,-2,0,0,-1,-13,-5
18.013517022132874,false,0.37695312,0.29248047,0.8276367,0.92496216,0.20722228,0.29248047,0.8276367,-4,-2,2,-2,0,-1,-13,-37
18.01565909385681,false,0.37939453,0.31298828,0.8408203,0.9249592,0.20728266,0.31298828,0.8408203,-1,-1,-1,0,0,-1,9,7
18.04338800907135,false,0.40429688,0.29785156,0.84228516,0.9249592,0.20728266,0.29785156,0.84228516,-5,-1,-1,-2,-3,-1,-8,-2
18.073525071144104,false,0.3857422,0.30078125,0.8408203,0.9251379,0.20691544,0.30078125,0.8408203,3,1,-3,0,-3,-1,-19,10
18.07537603378296,false,0.37695312,0.30273438,0.83154297,0.9252959,0.2066183,0.30273438,0.83154297,3,0,-2,-1,-3,-3,-7,45
18.10344910621643,false,0.38378906,0.3022461,0.84765625,0.925406,0.20643249,0.3022461,0.84765625,-5,-1,-1,0,-1,1,8,-6
18.133365035057068,false,0.38427734,0.29492188,0.84765625,0.925576,0.20594126,0.29492188,0.84765625,13,2,1,0,2,5,70,52
18.135350108146667,false,0.3696289,0.29101562,0.8417969,0.9257531,0.20532955,0.29101562,0.8417969,5,-1,-1,-1,-1,-3,-34,2
18.16356110572815,false,0.37402344,0.2866211,0.8466797,0.9257618,0.20533149,0.2866211,0.8466797,-8,-2,-2,-1,-1,-2,-7,-15
18.193377017974854,false,0.38720703,0.28173828,0.84228516,0.92581284,0.20502408,0.28173828,0.84228516,-10,-2,1,0,-2,-2,-26,-32
18.195616006851196,false,0.37158203,0.29248047,0.84375,0.9258372,0.20502949,0.29248047,0.84375,-7,0,-1,-3,0,-3,-8,-1
18.223438024520874,false,0.38476562,0.28564453,0.83935547,0.9258372,0.20502949,0.28564453,0.83935547,2,-4,-1,-1,-1,-3,-5,-3
18.253356099128723,false,0.38085938,0.2993164,0.8417969,0.9258778,0.20490289,0.2993164,0.8417969,-2,-2,-3,-2,-4,-1,44,28
18.25540006160736,false,0.3774414,0.29541016,0.84521484,0.92588645,0.2049048,0.29541016,0.84521484,4,2,0,1,0,0,-11,-1
18.28332805633545,false,0.38867188,0.29296875,0.84228516,0.92590266,0.2047728,0.29296875,0.84228516,-5,-3,1,1,-2,1,-3,-12
18.313270092010498,false,0.3803711,0.29296875,0.8359375,0.9259605,0.2044804,0.29296875,0.8359375,-3,-1,0,0,0,2,22,-4
18.315600991249084,false,0.38232422,0.29248047,0.84521484,0.9260054,0.20429373,0.29248047,0.84521484,-11,-3,-2,-1,0,-1,-12,-10
18.343321084976196,false,0.38623047,0.28808594,0.8491211,0.9260631,0.2039878,0.28808594,0.8491211,3,-2,-1,1,0,0,6,-10
18.37342607975006,false,0.390625,0.2841797,0.84228516,0.92612076,0.20368187,0.2841797,0.84228516,1,0,1,-1,-1,-1,-9,-6
18.375339031219482,false,0.37646484,0.28320312,0.8432617,0.9261755,0.20343633,0.28320312,0.8432617,4,-3,-1,0,-1,1,-11,20
18.403484106063843,false,0.3798828,0.28955078,0.8432617,0.92616403,0.20349485,0.28955078,0.8432617,-6,-2,-2,-2,0,0,-11,-17
18.4634290933609,false,0.38134766,0.29296875,0.83935547,0.92623854,0.20331469,0.29296875,0.83935547,1,-3,-1,-1,-1,-3,-5,-2
18.494181990623474,false,0.38183594,0.28271484,0.83740234,0.92631334,0.20301254,0.28271484,0.83740234,-14,-2,0,-2,1,5,46,-39
18.523526072502136,false,0.39648438,0.26757812,0.8510742,0.9265957,0.20190887,0.26757812,0.8510742,6,2,1,0,-1,-3,-12,36
18.553604006767273,false,0.38867188,0.27685547,0.85058594,0.9265957,0.20190887,0.27685547,0.85058594,8,0,-3,0,-2,-1,-9,24
18.555613040924072,false,0.38671875,0.28125,0.84765625,0.9265301,0.202091,0.28125,0.84765625,-1,0,-2,-2,-2,-4,-14,-4
18.583299040794373,false,0.3798828,0.2944336,0.84814453,0.926387,0.20264906,0.2944336,0.84814453,-16,-2,-2,-3,-1,0,6,-63
18.613372087478638,false,0.38720703,0.29492188,0.8413086,0.92616624,0.2034343,0.29492188,0.8413086,9,2,1,0,1,-2,9,39
18.615613102912903,false,0.40234375,0.2919922,0.8300781,0.9258927,0.20423476,0.2919922,0.8300781,2,-1,-1,0,-1,-2,-22,3
18.643272042274475,false,0.39111328,0.2993164,0.8232422,0.92570496,0.20496619,0.2993164,0.8232422,8,2,-1,2,-1,-2,-7,34
18.673357009887695,false,0.3803711,0.2939453,0.8261719,0.92564404,0.20533244,0.2939453,0.8261719,3,-2,-2,-1,0,-2,1,12
18.675474047660828,false,0.3857422,0.30517578,0.8388672,0.9257521,0.20514622,0.30517578,0.8388672,-14,-2,-4,-1,-2,-3,14,19
18.703466057777405,false,0.38330078,0.28271484,0.84472656,0.9259445,0.2043548,0.28271484,0.84472656,6,0,-1,-1,-1,-1,-8,0
18.733570098876953,false,0.37597656,0.26904297,0.83984375,0.9261033,0.20361699,0.26904297,0.83984375,3,0,0,1,-2,2,-1,16
18.735496997833252,false,0.36767578,0.28222656,0.8486328,0.92618114,0.2033155,0.28222656,0.8486328,-1,1,1,0,-3,0,-1,4
18.793646097183228,false,0.36865234,0.28808594,0.8564453,0.9261897,0.20331739,0.28808594,0.8564453,2,-3,0,-2,-2,-2,-32,-6
18.795531034469604,false,0.3701172,0.28955078,0.8671875,0.92619836,0.20331928,0.28955078,0.8671875,-10,-3,2,0,-1,0,-8,-2
18.823384046554565,false,0.3852539,0.28222656,0.85791016,0.92618126,0.20337656,0.28222656,0.85791016,1,1,-1,0,0,-1,7,3
18.85359501838684,false,0.38330078,0.28320312,0.8417969,0.92612803,0.20350036,0.28320312,0.8417969,14,0,-3,-2,-1,-2,-4,16
18.855346083641052,false,0.3881836,0.27539062,0.84228516,0.9261092,0.20361829,0.27539062,0.84228516,3,1,0,0,-2,0,13,32
18.883478045463562,false,0.38427734,0.28173828,0.828125,0.9260871,0.20380996,0.28173828,0.828125,2,-4,0,-2,-1,-3,1,13
18.913442015647888,false,0.36914062,0.3046875,0.83447266,0.92612463,0.20410998,0.3046875,0.83447266,-14,-2,-3,-4,-4,-3,2,-23
18.915768027305603,false,0.38183594,0.3100586,0.83740234,0.92617196,0.20435111,0.3100586,0.83740234,2,1,-1,0,-1,-1,-10,-13
18.943397045135498,false,0.37695312,0.31054688,0.8417969,0.92637914,0.20405123,0.31054688,0.8417969,0,-5,-1,0,-1,-4,-15,-17
18.973403096199036,false,0.3720703,0.3071289,0.8432617,0.92659646,0.20355703,0.3071289,0.8432617,4,2,-2,1,2,1,16,18
18.97535800933838,false,0.3623047,0.31347656,0.85253906,0.92674917,0.2033196,0.31347656,0.85253906,7,-2,-1,-2,-1,-1,-12,-75
19.00341308116913,false,0.37402344,0.2944336,0.8598633,0.9268541,0.20288858,0.2944336,0.8598633,8,-1,0,-2,0,2,14,25
19.03338599205017,false,0.36621094,0.27490234,0.8676758,0.9269795,0.20221789,0.27490234,0.8676758,-5,-4,2,2,-2,0,-9,-2
19.03536105155945,false,0.37304688,0.2626953,0.859375,0.92687386,0.20222148,0.2626953,0.859375,4,3,-1,0,2,-3,-13,16
19.063342094421387,false,0.37890625,0.27001953,0.85009766,0.92663974,0.20275965,0.27001953,0.85009766,-6,-1,-2,1,-2,1,6,-4
19.093594074249268,false,0.38916016,0.27734375,0.8466797,0.92635983,0.20368075,0.27734375,0.8466797,-5,-1,1,-1,-1,0,4,4
19.095517992973328,false,0.38330078,0.28222656,0.8330078,0.9261193,0.20447503,0.28222656,0.8330078,2,-2,-2,-2,-3,1,25,21
19.123266100883484,false,0.3779297,0.2993164,0.84033203,0.92594373,0.20527019,0.2993164,0.84033203,5,0,0,1,-2,0,-7,0
19.153481006622314,false,0.39648438,0.29833984,0.8256836,0.925774,0.20594457,0.29833984,0.8256836,-6,-1,-2,0,2,-2,-5,-7
19.155529022216797,false,0.3803711,0.30908203,0.83203125,0.9258821,0.20575836,0.30908203,0.83203125,4,1,-1,0,0,-1,-1,21
19.183324098587036,false,0.37695312,0.30126953,0.8305664,0.92600286,0.20551392,0.30126953,0.8305664,-5,-2,-3,-2,-1,0,7,-79
19.213528037071228,false,0.37451172,0.30810547,0.8457031,0.92615974,0.2052029,0.30810547,0.8457031,-7,-2,0,-1,-1,1,-12,0
19.216148018836975,false,0.36914062,0.30029297,0.84521484,0.9263023,0.20471916,0.30029297,0.84521484,-9,-2,-3,-2,0,-2,-4,-3
19.243401050567627,false,0.3671875,0.2915039,0.84521484,0.92639196,0.20429821,0.2915039,0.84521484,2,1,2,-2,-2,0,-7,16
19.273620009422302,false,0.37597656,0.2915039,0.84375,0.9263804,0.20435669,0.2915039,0.84375,-5,-3,0,-3,-1,-1,2,-31
19.276143074035645,false,0.38183594,0.29345703,0.8417969,0.9263804,0.20435669,0.29345703,0.8417969,1,1,-4,-1,-2,0,0,17
19.303991079330444,false,0.38134766,0.29248047,0.84033203,0.9263002,0.20447455,0.29248047,0.84033203,1,0,-1,2,-1,-1,4,15
19.33341610431671,false,0.38623047,0.2944336,0.8432617,0.9261808,0.20471929,0.2944336,0.8432617,-1,-4,0,-1,-2,1,3,-8
19.33604907989502,false,0.38134766,0.29736328,0.84033203,0.9261692,0.20477776,0.29736328,0.84033203,3,3,1,-1,-1,-1,11,15
19.364047050476074,false,0.37939453,0.29736328,0.84472656,0.9261766,0.20465732,0.29736328,0.84472656,-1,-4,1,1,0,-1,-1,8
19.393575072288513,false,0.3828125,0.29541016,0.8364258,0.9262273,0.20447192,0.29541016,0.8364258,-5,-2,-1,-3,-1,-2,-12,1
19.39585506916046,false,0.38183594,0.28857422,0.8305664,0.9262895,0.20410597,0.28857422,0.8305664,1,1,-2,2,1,2,42,40
19.423949003219604,false,0.37109375,0.2993164,0.8354492,0.92639685,0.20381096,0.2993164,0.8354492,-2,1,-1,-2,-1,-2,-24,-8
19.453391075134277,false,0.36816406,0.30029297,0.85058594,0.9265687,0.20338121,0.30029297,0.85058594,-5,-3,-1,0,-1,-2,-2,10
19.45622408390045,false,0.36865234,0.29052734,0.85498047,0.9267608,0.20257634,0.29052734,0.85498047,3,-2,1,-1,0,2,25,7
19.484095096588135,false,0.3642578,0.27929688,0.8544922,0.9268935,0.2019683,0.27929688,0.8544922,-5,-1,-1,1,-2,-2,-14,-14
19.51352107524872,false,0.36132812,0.27978516,0.84765625,0.92695034,0.20154013,0.27978516,0.84765625,7,0,-1,-3,-2,-3,-17,23
19.51628804206848,false,0.37158203,0.27441406,0.85302734,0.9269746,0.20124023,0.27441406,0.85302734,-19,-3,-4,0,-1,0,15,-20
19.544000029563904,false,0.37890625,0.27294922,0.85058594,0.926986,0.20118167,0.27294922,0.85058594,3,0,0,0,1,-1,-15,-9
19.573397994041443,false,0.37939453,0.26953125,0.8461914,0.9269618,0.2011764,0.26953125,0.8461914,2,-1,-1,-2,-2,1,-5,1
19.57601499557495,false,0.37451172,0.27734375,0.83984375,0.9269618,0.2011764,0.27734375,0.83984375,2,1,-3,0,-1,-2,-8,-2
19.604103088378906,false,0.37695312,0.2919922,0.84521484,0.9269504,0.20123497,0.2919922,0.84521484,-6,-3,0,-3,0,-2,-26,-62
19.633488059043884,false,0.37890625,0.30078125,0.8496094,0.92706084,0.20112363,0.30078125,0.8496094,3,1,1,0,-2,-2,-9,8
19.635915994644165,false,0.38183594,0.29785156,0.85595703,0.9271669,0.20093703,0.29785156,0.85595703,0,0,-2,-2,0,0,2,0
19.66396999359131,false,0.375,0.29296875,0.8486328,0.92721003,0.20087211,0.29296875,0.8486328,2,-3,-1,0,-2,-1,2,4
19.693382024765015,false,0.37939453,0.28955078,0.84033203,0.92719865,0.20093068,0.28955078,0.84033203,0,1,0,1,-3,2,18,2
19.72289204597473,false,0.3803711,0.28466797,0.83496094,0.92719865,0.20093068,0.28466797,0.83496094,2,-1,0,-1,0,0,-2,11
19.724732995033264,false,0.38134766,0.2866211,0.8339844,0.92717874,0.20100063,0.2866211,0.8339844,-1,1,-1,-2,-2,-3,-6,6
19.75339710712433,false,0.3803711,0.2861328,0.8388672,0.92717034,0.20099881,0.2861328,0.8388672,-7,-1,0,-2,-2,-2,-18,-6
19.783624053001404,false,0.39160156,0.28515625,0.83984375,0.92717034,0.20099881,0.28515625,0.83984375,-12,-3,-2,-2,-1,0,11,-16
19.784677028656006,false,0.39697266,0.29101562,0.83740234,0.92720604,0.20093228,0.29101562,0.83740234,5,0,-2,-1,-1,0,4,5
19.813295006752014,false,0.3984375,0.29052734,0.828125,0.92729264,0.20069367,0.29052734,0.828125,4,0,-3,-1,-2,0,-8,20
19.843273043632507,false,0.36669922,0.3100586,0.83984375,0.9275109,0.20013873,0.3100586,0.83984375,1,-3,-3,-3,-1,0,-8,-53
19.844763040542603,false,0.3623047,0.30566406,0.8540039,0.92774576,0.1994043,0.30566406,0.8540039,0,-2,0,0,0,-1,-16,0
19.87359309196472,false,0.36279297,0.2866211,0.86376953,0.9280169,0.19825038,0.2866211,0.86376953,4,-1,-2,0,-3,0,-2,32
19.903120040893555,false,0.36523438,0.2548828,0.86279297,0.9282001,0.19721277,0.2548828,0.86279297,8,-2,0,-2,-1,-3,2,-17
19.904797077178955,false,0.36621094,0.24951172,0.85498047,0.9282113,0.1971541,0.24951172,0.85498047,1,1,1,0,0,0,16,27
19.933333039283752,false,0.37402344,0.26660156,0.8486328,0.9282141,0.19709365,0.26660156,0.8486328,-10,-2,0,0,1,-1,-2,-2
19.963542103767395,false,0.37402344,0.28173828,0.8535156,0.92813677,0.19751747,0.28173828,0.8535156,7,0,-1,-1,-2,-1,5,29
19.96608006954193,false,0.36816406,0.28857422,0.84716797,0.92809075,0.19794793,0.28857422,0.84716797,-1,-1,0,1,-3,0,3,3
19.99337601661682,false,0.37548828,0.29003906,0.8461914,0.9280796,0.19800659,0.29003906,0.8461914,-5,0,0,1,1,-3,-5,-21
20.02331805229187,false,0.37402344,0.29052734,0.83935547,0.9280684,0.19806525,0.29052734,0.83935547,1,-1,-1,-2,0,-2,2,6
20.0246160030365,false,0.37158203,0.28808594,0.8457031,0.92809075,0.19794793,0.28808594,0.8457031,2,-1,0,1,-1,-4,-10,0
20.026583075523376,false,0.37695312,0.28515625,0.8535156,0.9281487,0.19776416,0.28515625,0.8535156,2,-3,-1,1,-2,-3,-17,4
20.054583072662354,false,0.37158203,0.28515625,0.8544922,0.9282401,0.1973914,0.28515625,0.8544922,0,-1,-2,-4,-3,0,6,6
20.08405601978302,false,0.37939453,0.27294922,0.85546875,0.9282662,0.19703074,0.27294922,0.85546875,-1,2,1,4,-1,-1,18,25
20.086709022521973,false,0.37646484,0.28027344,0.84472656,0.9283128,0.19690558,0.28027344,0.84472656,-2,0,-2,-1,0,0,5,-15
20.11458909511566,false,0.3779297,0.28271484,0.8339844,0.92829597,0.19690202,0.28271484,0.8339844,-2,-1,-2,-1,-2,0,-10,-5
20.143905997276306,false,0.3720703,0.2915039,0.8491211,0.9284047,0.19666798,0.2915039,0.8491211,-4,-1,1,-2,0,2,-1,-20
20.146488070487976,false,0.37402344,0.27539062,0.8515625,0.9285142,0.19623804,0.27539062,0.8515625,7,-4,-3,-1,-3,-2,1,16
20.174522042274475,false,0.37109375,0.27490234,0.8623047,0.92859125,0.19599727,0.27490234,0.8623047,3,2,-1,-2,-1,-1,-11,-3
20.20433008670807,false,0.36669922,0.28271484,0.8515625,0.928597,0.19604662,0.28271484,0.8515625,-14,-5,-2,-4,1,-2,-25,-67
20.233959078788757,false,0.3701172,0.28222656,0.8535156,0.928597,0.19604662,0.28222656,0.8535156,-2,-1,-1,-3,-5,-3,-16,6
20.236460089683533,false,0.36767578,0.28076172,0.85302734,0.928597,0.19604662,0.28076172,0.85302734,-5,0,0,-1,0,-1,-7,4
20.26399600505829,false,0.37548828,0.26953125,0.8535156,0.928597,0.19604662,0.26953125,0.8535156,3,-1,-3,-2,1,2,13,1
20.26656210422516,false,0.3720703,0.27490234,0.8466797,0.9285885,0.19605772,0.27490234,0.8466797,0,-1,3,-2,1,-1,4,33
20.29456901550293,false,0.37646484,0.27929688,0.8432617,0.9285774,0.19611643,0.27929688,0.8432617,-15,-1,-1,-2,0,-1,14,-11
20.32404100894928,false,0.37548828,0.28466797,0.8432617,0.9285774,0.19611643,0.28466797,0.8432617,3,3,-1,0,0,2,2,4
20.326654076576233,false,0.37939453,0.2788086,0.85058594,0.9285997,0.19598618,0.2788086,0.85058594,9,2,-2,2,-1,-2,-6,14
20.3545800447464,false,0.36914062,0.28076172,0.8574219,0.9286655,0.19580407,0.28076172,0.8574219,-3,-2,1,3,0,2,27,-7
20.384016036987305,false,0.37695312,0.27490234,0.8510742,0.92867094,0.19568314,0.27490234,0.8510742,4,-1,1,-1,0,-3,-4,-2
20.386588096618652,false,0.38232422,0.27294922,0.8486328,0.92867094,0.19568314,0.27294922,0.8486328,-13,-4,-1,-4,-2,-2,-12,-28
20.414809107780457,false,0.38232422,0.2788086,0.84472656,0.9286625,0.19569422,0.2788086,0.84472656,2,-1,-1,-1,-1,-3,-29,-61
20.44403600692749,false,0.375,0.2861328,0.8466797,0.9286514,0.19575293,0.2861328,0.8466797,0,1,-1,0,0,0,8,22
20.4466210603714,false,0.37353516,0.27929688,0.85009766,0.928682,0.19562444,0.27929688,0.85009766,1,-3,0,-2,-2,0,-5,7
20.474645018577576,false,0.36865234,0.27783203,0.84814453,0.92874783,0.19544233,0.27783203,0.84814453,-4,-1,-1,1,0,1,-6,-61
20.50412404537201,false,0.36865234,0.2709961,0.8623047,0.92874783,0.19544233,0.2709961,0.8623047,-10,-3,-2,-2,-3,-2,1,0
20.506797075271606,false,0.36669922,0.27734375,0.85839844,0.92875624,0.19544409,0.27734375,0.85839844,9,-1,-3,1,-3,-2,6,47
20.534656047821045,false,0.3725586,0.2680664,0.85791016,0.92875624,0.19544409,0.2680664,0.85791016,6,2,0,-1,-1,0,4,31
20.56404209136963,false,0.37597656,0.26416016,0.8544922,0.92876726,0.1953854,0.26416016,0.8544922,-7,-2,-1,-1,-2,-2,-29,8
20.566886067390442,false,0.3701172,0.27783203,0.8432617,0.92875624,0.19544409,0.27783203,0.8432617,3,-2,0,0,1,1,25,10
20.594741106033325,false,0.37451172,0.28320312,0.8520508,0.9288166,0.19538292,0.28320312,0.8520508,10,-1,0,-1,-1,-4,-6,23
20.62418806552887,false,0.375,0.28271484,0.84472656,0.928937,0.19507737,0.28271484,0.84472656,-15,0,1,0,0,0,6,-12
20.62679409980774,false,0.36914062,0.27929688,0.859375,0.92909396,0.19452257,0.27929688,0.859375,5,1,-1,4,-1,2,36,-2
20.654603004455566,false,0.3803711,0.27294922,0.86376953,0.9292072,0.19403243,0.27294922,0.86376953,5,0,0,-2,-1,-3,-10,2
20.683972001075745,false,0.3720703,0.2763672,0.8540039,0.92924964,0.19385818,0.2763672,0.8540039,-1,-3,-2,-2,0,0,-20,-13
20.68658208847046,false,0.37646484,0.27392578,0.8491211,0.9292783,0.19379039,0.27392578,0.8491211,-18,-1,-5,-2,-3,-3,-40,-1
20.714742064476013,false,0.3725586,0.27685547,0.8417969,0.9293143,0.19373685,0.27685547,0.8417969,3,1,0,1,-1,0,26,-1
20.744108080863953,false,0.37060547,0.28027344,0.8388672,0.92940736,0.19348666,0.28027344,0.8388672,-2,-2,0,-2,-2,1,-4,-6
20.746738076210022,false,0.36914062,0.2758789,0.8466797,0.92953795,0.19312221,0.2758789,0.8466797,-1,0,-3,0,-1,0,11,20
20.77469503879547,false,0.3725586,0.27685547,0.85498047,0.9296041,0.19294016,0.27685547,0.85498047,-15,-4,1,-3,1,1,42,-49
20.80401599407196,false,0.36865234,0.2763672,0.8535156,0.9297244,0.1926346,0.2763672,0.8535156,8,0,-2,1,-1,2,11,22
20.806699991226196,false,0.37158203,0.27978516,0.8515625,0.929889,0.19208144,0.27978516,0.8515625,5,1,-1,-2,0,-4,-15,-3
20.834439039230347,false,0.37646484,0.27001953,0.84521484,0.9300809,0.19128977,0.27001953,0.84521484,5,-1,1,0,1,-3,-12,6
20.864021062850952,false,0.3671875,0.2680664,0.84814453,0.9303566,0.1902586,0.2680664,0.84814453,5,2,-2,-1,-2,-3,-36,13
20.86669099330902,false,0.36376953,0.2705078,0.85595703,0.9306827,0.18915173,0.2705078,0.85595703,-2,-1,0,-1,2,-1,-9,13
20.894782066345215,false,0.37353516,0.27001953,0.85839844,0.9310309,0.18787867,0.27001953,0.85839844,-2,-2,0,0,1,1,-2,-2
20.924085021018982,false,0.3852539,0.2578125,0.85595703,0.9314732,0.18622139,0.2578125,0.85595703,-4,-1,0,-2,-2,0,8,-24
20.92663609981537,false,0.39697266,0.26220703,0.8457031,0.93192065,0.1843943,0.26220703,0.8457031,-1,0,-1,-3,0,0,0,-61
20.95462203025818,false,0.3720703,0.2475586,0.83203125,0.93256193,0.18237418,0.2475586,0.83203125,4,-1,-1,-1,-3,-1,-4,30
20.984174013137817,false,0.3515625,0.2783203,0.8520508,0.9333511,0.18024889,0.2783203,0.8520508,2,0,-2,-3,0,-3,-6,0
20.986733078956604,false,0.35791016,0.25732422,0.8730469,0.93417054,0.17767857,0.25732422,0.8730469,1,-1,-1,0,-2,0,5,-18
21.01484704017639,false,0.36572266,0.25390625,0.88183594,0.93495035,0.17523453,0.25390625,0.88183594,3,0,-1,1,-2,2,18,21
21.044170022010803,false,0.37451172,0.24609375,0.8803711,0.93571365,0.17285983,0.24609375,0.8803711,-1,-2,-1,-2,0,-2,-15,6
21.07293701171875,false,0.3647461,0.23144531,0.8613281,0.93648785,0.17023167,0.23144531,0.8613281,-3,0,-2,0,1,-1,5,10
21.07548999786377,false,0.35253906,0.22216797,0.86279297,0.937334,0.16748352,0.22216797,0.86279297,-1,1,-2,0,-1,0,2,-1
21.104340076446533,false,0.32226562,0.23730469,0.8823242,0.93838245,0.16473879,0.23730469,0.8823242,2,-3,-1,-2,-3,-1,4,4
21.13283407688141,false,0.25634766,0.2475586,0.8691406,0.93960005,0.16144226,0.2475586,0.8691406,0,0,0,0,0,-1,-2,3
21.135220050811768,false,0.24023438,0.2709961,0.9165039,0.94087064,0.15838854,0.2709961,0.9165039,3,1,-1,1,0,-1,-3,3
21.164221048355103,false,0.23925781,0.26171875,0.94628906,0.9421779,0.15491368,0.26171875,0.94628906,-3,0,-4,-1,-2,-1,0,-1
21.193255066871643,false,0.23779297,0.22949219,0.94433594,0.94342214,0.15119414,0.22949219,0.94433594,0,-1,0,-1,0,-2,0,4
21.19533109664917,false,0.24707031,0.20214844,0.91503906,0.9445472,0.1475874,0.20214844,0.91503906,-3,-3,1,0,0,-1,-2,-2
21.22396206855774,false,0.24707031,0.1850586,0.90722656,0.9455909,0.1442313,0.1850586,0.90722656,-1,0,-1,0,-1,0,0,-4
21.25327205657959,false,0.25,0.20458984,0.89941406,0.94650453,0.14154537,0.20458984,0.89941406,-1,-1,-1,3,-2,-1,-2,-3
21.255540013313293,false,0.2319336,0.22167969,0.9013672,0.94748783,0.1386776,0.22167969,0.9013672,-1,-2,0,6,-1,-2,0,-3
21.28404700756073,false,0.24365234,0.2109375,0.9160156,0.94853854,0.13520032,0.2109375,0.9160156,-1,-1,-2,-5,-2,0,-3,1
21.312949061393738,false,0.23876953,0.21582031,0.92041016,0.94948405,0.1322051,0.21582031,0.92041016,-2,-4,-1,6,-3,-2,-1,-1
21.31539809703827,false,0.24023438,0.2265625,0.9194336,0.95040333,0.12897067,0.2265625,0.9194336,-3,-3,-3,-7,-1,0,0,-1
21.34399104118347,false,0.2578125,0.22998047,0.9213867,0.95137835,0.1250641,0.22998047,0.9213867,0,7,-11,-40,6,3,3,0
21.373003005981445,false,0.25634766,0.2055664,0.94873047,0.9524084,0.12030229,0.2055664,0.94873047,-3,-4,-1,5,-3,0,-2,-2
21.375439047813416,false,0.26123047,0.16503906,0.99853516,0.95344293,0.11578523,0.16503906,0.99853516,2,2,-2,1,-3,-1,-1,-1
21.404109001159668,false,0.25,0.14208984,1.0078125,0.95438504,0.11255347,0.14208984,1.0078125,-3,-5,2,3,0,-2,-1,0
21.433012008666992,false,0.23779297,0.15917969,0.98828125,0.9552929,0.11090455,0.15917969,0.98828125,2,2,7,15,1,2,-1,2
21.435243010520935,false,0.2109375,0.14990234,0.97998047,0.95625716,0.10913307,0.14990234,0.97998047,-2,0,4,9,0,-2,0,-2
21.464017033576965,false,0.23046875,0.12792969,0.95166016,0.9570786,0.107854456,0.12792969,0.95166016,4,11,12,21,17,4,6,6
21.492991089820862,false,0.20361328,0.11328125,0.9946289,0.95796984,0.10614269,0.11328125,0.9946289,1,4,-4,-10,-3,-1,-3,-1
21.49540901184082,false,0.24658203,0.12841797,1.0356445,0.9583653,0.106329046,0.12841797,1.0356445,-3,-6,-7,-12,-5,-3,0,-1
21.523905992507935,false,0.26708984,0.25097656,1.0166016,0.95867336,0.106451444,0.25097656,1.0166016,-2,-4,1,-1,-2,-3,-4,-2
21.552969098091125,false,0.07910156,0.008300781,1.0229492,0.95948386,0.1019299,0.008300781,1.0229492,-1,-3,2,6,-4,-1,-3,-1
21.555411100387573,false,0.08886719,0.1303711,0.99853516,0.95977294,0.10285026,0.1303711,0.99853516,-1,-2,-12,-23,-3,0,0,-1
21.584089040756226,false,0.12988281,0.26171875,0.99072266,0.96002316,0.10517039,0.26171875,0.99072266,0,-2,-2,-1,-9,-3,0,-2
21.61301302909851,false,0.1508789,0.27783203,0.99902344,0.96050465,0.100347586,0.27783203,0.99902344,-1,0,4,-1,3,3,0,1
21.615384101867676,false,0.099609375,0.16308594,1.0146484,0.9614658,0.08545277,0.16308594,1.0146484,-3,-2,-3,1,-2,-4,0,0
21.643988013267517,false,0.053710938,0.059570312,1.0458984,0.9623964,0.065250315,0.059570312,1.0458984,-2,-3,2,6,16,0,-3,0
21.67314100265503,false,0.0234375,0.029296875,1.0375977,0.9626981,0.04583986,0.029296875,1.0375977,-2,2,-1,-3,-9,-2,0,-2
21.67536699771881,false,-0.025390625,-0.005859375,1.0493164,0.9622995,0.029236425,-0.005859375,1.0493164,2,-4,-3,-2,-3,0,-2,-2
21.704227089881897,false,-0.045410156,-0.036621094,1.0708008,0.9612364,0.017579127,-0.036621094,1.0708008,0,-1,-3,-11,-2,1,-3,-1
21.733057022094727,false,-0.07080078,0.005859375,1.0673828,0.95973694,0.0113527775,0.005859375,1.0673828,-2,-2,4,11,0,-2,0,-2
21.735369086265564,false,-0.106933594,0.07128906,1.0380859,0.9576663,0.007629591,0.07128906,1.0380859,-2,0,-2,-2,-1,-2,-1,-1
21.76400101184845,false,-0.14501953,0.088378906,1.0297852,0.9550886,0.0034182246,0.088378906,1.0297852,0,0,3,0,-9,0,-1,-1
21.793307065963745,false,-0.19189453,0.08203125,1.0415039,0.952001,-0.0021363103,0.08203125,1.0415039,-1,-2,0,3,-15,-4,-2,-1
21.795472025871277,false,-0.22314453,0.080566406,1.0307617,0.948364,-0.007935079,0.080566406,1.0307617,0,1,-2,-3,4,-2,-1,-2
21.823994994163513,false,-0.26513672,0.057128906,1.0332031,0.94408095,-0.013672601,0.057128906,1.0332031,0,2,3,-7,15,4,-1,0
21.853332996368408,false,-0.29052734,0.03564453,1.0307617,0.9391737,-0.017456533,0.03564453,1.0307617,-1,-6,-1,-9,-7,-1,-2,-1
21.855525016784668,false,-0.31933594,0.072753906,1.0395508,0.93380857,-0.018799467,0.072753906,1.0395508,-1,-1,-1,6,-25,-4,-2,-3
21.883958101272583,false,-0.3305664,0.100097656,1.0058594,0.927719,-0.01989844,0.100097656,1.0058594,-1,2,-13,-8,2,2,2,1
21.912950038909912,false,-0.38183594,0.11376953,0.9873047,0.9208391,-0.021485837,0.11376953,0.9873047,-1,0,-4,-5,3,-2,1,-2
21.915258049964905,false,-0.4091797,0.1430664,0.94140625,0.9130072,-0.023560688,0.1430664,0.94140625,-1,-3,3,7,14,1,0,1
21.944082021713257,false,-0.4868164,0.1484375,0.88671875,0.904285,-0.026124466,0.1484375,0.88671875,-1,-2,5,5,-1,-1,-2,0
21.97293210029602,false,-0.51953125,0.16357422,0.8911133,0.89474016,-0.02832113,0.16357422,0.8911133,2,3,0,-1,12,2,7,2
21.975526094436646,false,-0.53808594,0.17871094,0.81103516,0.8846475,-0.028749669,0.17871094,0.81103516,1,-1,-3,0,-6,0,-2,0
22.003990054130554,false,-0.59472656,0.2084961,0.7739258,0.8741265,-0.028016483,0.2084961,0.7739258,-2,0,4,3,-5,-4,-2,-1
22.032905101776123,false,-0.6508789,0.25048828,0.7182617,0.86301476,-0.026002143,0.25048828,0.7182617,-1,-5,3,11,-7,-3,-3,-3
22.035261034965515,false,-0.66552734,0.29101562,0.6723633,0.85140824,-0.024292815,0.29101562,0.6723633,-3,-1,-3,4,1,-1,-3,-3
22.0641850233078,false,-0.68359375,0.30517578,0.6308594,0.8392297,-0.02350014,0.30517578,0.6308594,3,5,6,7,0,0,0,3
22.092958092689514,false,-0.7241211,0.31054688,0.5390625,0.8267619,-0.023133462,0.31054688,0.5390625,-1,-2,-7,-15,0,-1,0,0
22.095502018928528,false,-0.74072266,0.32714844,0.546875,0.81418777,-0.022828264,0.32714844,0.546875,-2,-5,-2,-1,1,-2,-4,-5
22.12404501438141,false,-0.6821289,0.32958984,0.54296875,0.80147034,-0.021790031,0.32958984,0.54296875,-1,1,5,-1,29,6,4,3
22.153057098388672,false,-0.7216797,0.32958984,0.44384766,0.7887915,-0.019837284,0.32958984,0.44384766,-2,-3,-5,-5,-10,-1,4,-1
22.155535101890564,false,-0.7763672,0.3647461,0.40283203,0.77603835,-0.01800624,0.3647461,0.40283203,-1,-4,-3,1,-5,-2,-6,-2
22.21367108821869,false,-0.72998047,0.38916016,0.4399414,0.76388204,-0.016052814,0.38916016,0.4399414,-1,-1,1,0,-8,-2,-2,-1
22.215673089027405,false,-0.71435547,0.3935547,0.3955078,0.75182444,-0.013306627,0.3935547,0.3955078,2,5,0,1,-1,-1,-1,0
22.217447996139526,false,-0.7602539,0.4140625,0.3828125,0.74014884,-0.010376489,0.4140625,0.3828125,-3,-3,-1,3,6,1,1,0
22.244078040122986,false,-0.77441406,0.453125,0.36376953,0.7290965,-0.0075686867,0.453125,0.36376953,0,1,-1,0,-6,-3,-2,-1
22.303678035736084,false,-0.7758789,0.4638672,0.34033203,0.71865344,-0.005127135,0.4638672,0.34033203,-1,2,-4,-5,-4,0,-1,-1
22.30525004863739,false,-0.74072266,0.48291016,0.34814453,0.708711,-0.0021363264,0.48291016,0.34814453,-2,-1,-8,-21,-2,-1,0,-2
22.333394050598145,false,-0.7446289,0.4868164,0.33935547,0.6994489,0.00079351035,0.4868164,0.33935547,-1,-3,4,3,2,-2,-1,1
22.334593057632446,false,-0.77490234,0.49804688,0.30126953,0.6905425,0.0041507017,0.49804688,0.30126953,0,0,0,-3,-4,-2,-2,2
22.336483001708984,false,-0.7685547,0.5258789,0.29785156,0.68228006,0.007934909,0.5258789,0.29785156,-2,-1,-1,0,6,0,-4,-2
22.393555998802185,false,-0.75439453,0.5473633,0.2685547,0.6744809,0.011475332,0.5473633,0.2685547,-1,-1,-1,-7,-3,1,1,1
22.395442008972168,false,-0.7763672,0.54052734,0.25390625,0.66731995,0.013367152,0.54052734,0.25390625,-1,-3,2,0,-6,0,-2,0
22.42399799823761,false,-0.7260742,0.5048828,0.23876953,0.6551261,0.014771314,0.5048828,0.23876953,-1,-2,3,3,1,0,3,-1
22.452930092811584,false,-0.74121094,0.49267578,0.2163086,0.650291,0.014099608,0.49267578,0.2163086,-2,-3,0,2,-4,-2,0,-1
22.455491065979004,false,-0.72265625,0.4892578,0.22998047,0.6463734,0.013305892,0.4892578,0.22998047,-1,2,-2,-1,2,-2,-2,-1
22.484104990959167,false,-0.7001953,0.5029297,0.25732422,0.642994,0.012452134,0.5029297,0.25732422,3,1,-6,-9,-1,0,1,1
22.51295506954193,false,-0.7026367,0.49658203,0.2211914,0.6398684,0.010498651,0.49658203,0.2211914,-1,1,-3,-4,-1,-2,-1,-1
22.51565408706665,false,-0.7236328,0.51416016,0.20214844,0.6374239,0.0067142225,0.51416016,0.20214844,0,-1,-11,-10,-1,1,1,0
22.54401409626007,false,-0.70751953,0.51416016,0.21777344,0.6357718,0.001586988,0.51416016,0.21777344,0,-1,2,3,-8,-3,-3,-3
22.572978019714355,false,-0.68896484,0.49023438,0.2524414,0.6344885,-0.0036622714,0.49023438,0.2524414,-1,-1,-3,0,0,-2,-2,0
22.575499057769775,false,-0.67626953,0.4716797,0.25976562,0.6334605,-0.008850624,0.4716797,0.25976562,-2,-3,6,7,-3,-1,-2,-1
22.60402500629425,false,-0.69384766,0.5019531,0.2446289,0.63289845,-0.014160713,0.5019531,0.2446289,-2,0,1,0,14,0,-1,0
22.6333349943161,false,-0.7421875,0.56884766,0.2421875,0.6326507,-0.019653982,0.56884766,0.2421875,1,0,1,2,-5,-1,-1,-2
22.635380029678345,false,-0.7709961,0.6088867,0.2607422,0.6324821,-0.02551414,0.6088867,0.2607422,0,1,2,-3,-2,0,-1,1
22.69427800178528,false,-0.7993164,0.6118164,0.26513672,0.6321668,-0.03100712,0.6118164,0.26513672,-1,-2,3,6,-7,0,-2,-1
22.696789026260376,false,-0.8051758,0.61035156,0.29296875,0.6321152,-0.035036124,0.61035156,0.29296875,0,-3,-3,-1,-5,-3,-2,0
22.72402000427246,false,-0.84765625,0.5605469,0.23876953,0.6327754,-0.04126133,0.5605469,0.23876953,-1,-3,-2,-4,1,1,-2,0
22.78423309326172,false,-0.88378906,0.5732422,0.24072266,0.6329862,-0.043704737,0.5732422,0.24072266,2,0,0,6,-1,-1,-1,-1
22.785991072654724,false,-0.8886719,0.55859375,0.24560547,0.6322853,-0.04596108,0.55859375,0.24560547,0,-1,-3,-3,0,1,0,-1
22.81306004524231,false,-0.8720703,0.5229492,0.21972656,0.62936026,-0.05090549,0.5229492,0.21972656,-2,-3,0,-2,-8,-3,-2,-3
22.8442360162735,false,-0.8598633,0.5292969,0.20947266,0.6276516,-0.052980803,0.5292969,0.20947266,-2,-2,-3,-7,1,1,0,0
22.846123099327087,false,-0.8613281,0.51904297,0.1850586,0.62625253,-0.055422734,0.51904297,0.1850586,-2,0,6,14,7,-1,-1,0
22.872968077659607,false,-0.87158203,0.5126953,0.18017578,0.62557864,-0.057070546,0.5126953,0.18017578,0,0,1,2,-1,-1,-2,1
22.875495076179504,false,-0.8754883,0.5205078,0.21533203,0.6255301,-0.05774312,0.5205078,0.21533203,1,-2,0,1,2,-1,-1,-2
22.90403699874878,false,-0.81933594,0.54541016,0.22509766,0.62571794,-0.056950036,0.54541016,0.22509766,0,-3,0,-2,-2,0,-2,-1
22.933419108390808,false,-0.81152344,0.55371094,0.2290039,0.6263166,-0.0557282,0.55371094,0.2290039,0,1,-1,0,14,0,1,0
22.935376048088074,false,-0.8276367,0.55615234,0.2319336,0.62734145,-0.05444528,0.55615234,0.2319336,-2,-2,-1,-4,-3,-1,-1,-2
22.964001059532166,false,-0.8286133,0.53808594,0.22705078,0.6286754,-0.053101707,0.53808594,0.22705078,-2,-1,-3,0,-2,-2,-1,-1
22.993309020996094,false,-0.8198242,0.53222656,0.22265625,0.6300512,-0.05163954,0.53222656,0.22265625,-1,0,0,3,-3,-2,-3,-1
22.995513081550598,false,-0.8432617,0.5097656,0.21044922,0.631513,-0.050601613,0.5097656,0.21044922,0,-1,1,-2,-2,-2,-1,-2
23.02419900894165,false,-0.8359375,0.50927734,0.22363281,0.6328479,-0.04944124,0.50927734,0.22363281,0,-2,-3,-2,1,-2,1,-2
23.052947998046875,false,-0.81347656,0.49853516,0.20996094,0.63386947,-0.048158206,0.49853516,0.20996094,0,-2,1,-2,-4,-1,-2,1
23.055505990982056,false,-0.80029297,0.5131836,0.22851562,0.63499445,-0.046878375,0.5131836,0.22851562,0,-1,4,-1,-2,-2,0,-1
23.08412802219391,false,-0.79248047,0.5102539,0.21679688,0.63600445,-0.04522834,0.5102539,0.21679688,0,1,-2,0,-1,2,0,1
23.113331079483032,false,-0.8041992,0.51220703,0.23095703,0.6371965,-0.044315036,0.51220703,0.23095703,-1,-1,-4,-6,-1,0,0,0
23.115495085716248,false,-0.7993164,0.50341797,0.2626953,0.6389322,-0.04333606,0.50341797,0.2626953,0,-1,-3,-3,0,-2,-4,0
23.14414608478546,false,-0.80371094,0.4951172,0.27392578,0.6407911,-0.041811958,0.4951172,0.27392578,-2,0,-3,-4,-1,0,0,-1
23.203276991844177,false,-0.80859375,0.52441406,0.28564453,0.64247626,-0.04028447,0.52441406,0.28564453,-3,-2,1,1,-4,-1,-3,1
23.204968094825745,false,-0.79785156,0.5620117,0.29638672,0.6437477,-0.03942932,0.5620117,0.29638672,-1,0,-5,-9,6,1,-1,-3
23.20709002017975,false,-0.8261719,0.55566406,0.2866211,0.64484096,-0.04010038,0.55566406,0.2866211,0,-1,-2,-3,-1,0,0,-2
23.233503103256226,false,-0.82128906,0.53759766,0.29882812,0.6459146,-0.041506514,0.53759766,0.29882812,0,-1,-1,2,4,1,0,-2
23.23526704311371,false,-0.8046875,0.5258789,0.29833984,0.6467747,-0.0424835,0.5258789,0.29833984,1,0,1,3,-3,-1,0,-1
23.26426601409912,false,-0.8564453,0.52734375,0.31591797,0.64780796,-0.04352088,0.52734375,0.31591797,-1,-1,1,0,-3,-1,-1,-1
23.293387055397034,false,-0.88916016,0.5229492,0.31298828,0.64897174,-0.04431466,0.5229492,0.31298828,0,3,-1,-5,-7,1,0,-1
23.295469045639038,false,-0.8979492,0.51464844,0.29833984,0.64995664,-0.04498667,0.51464844,0.29833984,-1,-1,2,-1,0,-4,-1,-1
23.32403600215912,false,-0.8808594,0.51464844,0.29638672,0.6508325,-0.045350138,0.51464844,0.29638672,0,-1,-9,-14,-2,2,1,0
23.352971076965332,false,-0.8666992,0.50146484,0.3046875,0.65172154,-0.045657743,0.50146484,0.3046875,0,2,0,1,3,-3,0,-2
23.355513095855713,false,-0.84521484,0.4814453,0.31835938,0.6528158,-0.045474313,0.4814453,0.31835938,-2,-1,1,4,-1,-2,-1,0
23.384045004844666,false,-0.8496094,0.47216797,0.31591797,0.65409297,-0.044741523,0.47216797,0.31591797,0,-1,-1,-8,2,2,-1,0
23.413331031799316,false,-0.8466797,0.48095703,0.3251953,0.6553323,-0.043583017,0.48095703,0.3251953,-1,-3,-1,4,-2,-1,0,-1
23.41538107395172,false,-0.8178711,0.4873047,0.33251953,0.65652007,-0.04211592,0.4873047,0.33251953,2,-3,-6,0,0,-1,0,-2
23.444034099578857,false,-0.8100586,0.48828125,0.32714844,0.65762216,-0.040834345,0.48828125,0.32714844,-1,0,1,3,-2,-3,-2,-1
23.4729220867157,false,-0.82128906,0.484375,0.33203125,0.6588429,-0.039369434,0.484375,0.33203125,-2,1,1,1,1,1,-1,0
23.47549307346344,false,-0.8310547,0.48095703,0.32666016,0.6601828,-0.037721243,0.48095703,0.32666016,-1,1,2,2,-2,0,0,-2
23.504175066947937,false,-0.82177734,0.47216797,0.3227539,0.6616554,-0.035768457,0.47216797,0.3227539,-1,-3,0,2,0,-1,0,0
23.53298008441925,false,-0.8461914,0.47314453,0.31591797,0.6634329,-0.033815604,0.47314453,0.31591797,-1,0,1,4,0,-1,-3,0
23.53556799888611,false,-0.85009766,0.4711914,0.30566406,0.6653077,-0.031800486,0.4711914,0.30566406,-2,-2,-2,-2,-1,-1,-1,-2
23.564205050468445,false,-0.8432617,0.4765625,0.30322266,0.66721827,-0.02929876,0.4765625,0.30322266,1,-1,0,-2,-3,1,-1,-1
23.592987060546875,false,-0.8588867,0.48095703,0.29589844,0.669173,-0.026918298,0.48095703,0.29589844,0,-1,-1,2,-3,-1,-2,0
23.59551203250885,false,-0.8730469,0.47460938,0.28710938,0.6710409,-0.024781026,0.47460938,0.28710938,0,1,-2,0,0,0,-1,0
23.624065041542053,false,-0.86621094,0.47509766,0.27685547,0.67276335,-0.022523105,0.47509766,0.27685547,0,-2,-1,0,-2,-2,-1,-2
23.653431057929993,false,-0.8535156,0.48242188,0.28076172,0.67441475,-0.020142715,0.48242188,0.28076172,-1,-1,2,-2,-2,-3,0,-1
23.65502107143402,false,-0.84228516,0.4711914,0.26953125,0.6759199,-0.01770063,0.4711914,0.26953125,0,0,0,-5,2,0,0,-1
23.68397808074951,false,-0.8486328,0.47705078,0.25878906,0.6773483,-0.0148324445,0.47705078,0.25878906,1,0,1,2,-1,-2,-1,-1
23.713438034057617,false,-0.8378906,0.48583984,0.265625,0.6788027,-0.011719281,0.48583984,0.265625,-1,1,-1,0,-2,-4,-2,0
23.716122031211853,false,-0.8300781,0.49169922,0.2734375,0.68022054,-0.008179249,0.49169922,0.2734375,-2,-1,-3,-1,0,-1,3,0
23.744445085525513,false,-0.8432617,0.50097656,0.26757812,0.6814822,-0.0048829895,0.50097656,0.26757812,1,-2,-2,1,1,0,-1,-1
23.773452043533325,false,-0.85302734,0.52001953,0.25439453,0.6828351,-0.0021973778,0.52001953,0.25439453,-3,-2,-7,-5,-1,-1,-1,-1
23.775479078292847,false,-0.8256836,0.50683594,0.26367188,0.68443274,0.0003662353,0.50683594,0.26367188,2,-2,0,5,0,0,1,2
23.80339002609253,false,-0.8232422,0.49316406,0.26416016,0.68609625,0.0031130703,0.49316406,0.26416016,-1,-2,-1,1,-1,-3,1,-2
23.833338022232056,false,-0.8300781,0.50390625,0.25927734,0.6878353,0.0064089717,0.50390625,0.25927734,-3,-1,2,1,-2,-1,-1,-1
23.863473057746887,false,-0.82958984,0.5161133,0.2553711,0.68979424,0.010071325,0.5161133,0.2553711,0,1,1,2,1,-1,-4,-1
23.865100026130676,false,-0.83496094,0.5283203,0.23925781,0.69179744,0.013733407,0.5283203,0.23925781,-1,-1,-1,-1,-1,-1,-1,0
23.892961025238037,false,-0.83154297,0.52490234,0.23925781,0.69406193,0.017273726,0.52490234,0.23925781,-1,-1,-1,-1,4,2,0,-2
23.89474606513977,false,-0.8359375,0.51123047,0.24951172,0.696802,0.020996837,0.51123047,0.24951172,-2,-2,0,-3,-3,-2,-1,-1
23.95353400707245,false,-0.8261719,0.50341797,0.24511719,0.6998435,0.025147002,0.50341797,0.24511719,0,0,-1,1,-1,1,-1,-2
23.955685019493103,false,-0.81396484,0.5136719,0.22998047,0.70317906,0.029909527,0.5136719,0.22998047,1,-2,-1,-2,-2,-2,-1,-1
23.983354091644287,false,-0.80078125,0.5317383,0.26708984,0.7107823,0.04132242,0.5317383,0.26708984,0,-3,-1,0,-1,-2,-3,-2
24.013541102409363,false,-0.8120117,0.55566406,0.23632812,0.7148152,0.047182318,0.55566406,0.23632812,-2,-1,-3,-9,0,-2,-1,0
24.01564610004425,false,-0.8076172,0.5942383,0.23388672,0.7194654,0.054202534,0.5942383,0.23388672,1,0,-3,-4,-2,0,0,-2
24.043323040008545,false,-0.76660156,0.6166992,0.2685547,0.72476566,0.06305229,0.6166992,0.2685547,0,-3,-1,0,0,0,-1,0
24.10382902622223,false,-0.70947266,0.640625,0.25439453,0.7301895,0.07409931,0.640625,0.25439453,1,3,-2,-4,0,2,-2,1
24.106200098991394,false,-0.6376953,0.7114258,0.2421875,0.7356233,0.08783289,0.7114258,0.2421875,0,-1,2,-1,-3,-2,0,-1
24.133453011512756,false,-0.5761719,0.7910156,0.2631836,0.7495594,0.12152873,0.7910156,0.2631836,6,3,0,4,0,-1,0,1
24.135396003723145,false,-0.5258789,0.7680664,0.30517578,0.75785613,0.14136556,0.7680664,0.30517578,-7,-2,0,2,-2,1,0,-3
24.16363501548767,false,-0.5024414,0.72216797,0.34179688,0.7666444,0.16413271,0.72216797,0.34179688,-5,0,-4,-3,-3,-2,-2,-2
24.193474054336548,false,-0.5180664,0.69970703,0.37939453,0.7756165,0.18897527,0.69970703,0.37939453,-1,-3,-2,-3,0,0,0,-1
24.195669054985046,false,-0.5151367,0.6694336,0.41308594,0.7846054,0.21498212,0.6694336,0.41308594,6,4,2,-2,1,-2,-3,1
24.223514080047607,false,-0.4423828,0.6816406,0.4140625,0.7934927,0.24140489,0.6816406,0.4140625,-2,-4,-1,-1,1,2,1,-2
24.253477096557617,false,-0.4033203,0.7055664,0.48779297,0.8024646,0.26649123,0.7055664,0.48779297,-2,-4,0,0,-2,-1,-1,-1
24.255531072616577,false,-0.3544922,0.71191406,0.5522461,0.81052864,0.2905427,0.71191406,0.5522461,0,-3,-7,-6,-1,-3,-1,-1
24.283478021621704,false,-0.36621094,0.6538086,0.5761719,0.8179892,0.312827,0.6538086,0.5761719,0,-2,3,11,-3,0,-3,0
24.31333100795746,false,-0.35253906,0.6479492,0.59814453,0.8256125,0.33272317,0.6479492,0.59814453,-2,-3,1,1,-2,-2,-1,0
24.315439105033875,false,-0.26904297,0.68896484,0.6586914,0.8324207,0.35071778,0.68896484,0.6586914,7,4,-11,-25,-1,-2,3,4
24.343298077583313,false,-0.2397461,0.6713867,0.6796875,0.83883584,0.3662239,0.6713867,0.6796875,-3,-1,3,7,1,-1,-2,-3
24.37341606616974,false,-0.20654297,0.6542969,0.7080078,0.8448202,0.37989748,0.6542969,0.7080078,-3,0,0,1,-1,-1,-1,-2
24.375560998916626,false,-0.15722656,0.6557617,0.74902344,0.8497658,0.3928992,0.6557617,0.74902344,-3,-1,-1,-9,1,-1,1,-2
24.403475999832153,false,-0.12109375,0.671875,0.7397461,0.85400283,0.4049967,0.671875,0.7397461,0,-3,-1,-2,0,-1,-1,1
24.433465003967285,false,-0.091796875,0.71972656,0.74658203,0.8581284,0.41530022,0.71972656,0.74658203,3,-2,0,4,-2,-2,-3,-1
24.435405015945435,false,-0.041015625,0.77734375,0.7475586,0.8625285,0.42305464,0.77734375,0.7475586,-5,1,1,3,1,-1,-1,-2
24.46342408657074,false,0.0068359375,0.80371094,0.7373047,0.86729866,0.4281864,0.80371094,0.7373047,0,1,-1,1,1,-1,-1,0
24.49343502521515,false,0.040527344,0.79833984,0.7416992,0.87298644,0.43008405,0.79833984,0.7416992,1,4,1,2,-1,-2,-1,-1
24.495512008666992,false,0.07080078,0.78271484,0.7246094,0.87841725,0.4311209,0.78271484,0.7246094,-6,-3,-5,2,0,1,0,-1
24.523483991622925,false,0.09716797,0.7753906,0.7182617,0.8832926,0.43184957,0.7753906,0.7182617,-1,0,2,0,-2,-1,-1,0
24.554099082946777,false,0.11816406,0.7807617,0.7241211,0.8874243,0.43251178,0.7807617,0.7241211,-2,0,-2,1,-1,-1,-1,-2
24.55560302734375,false,0.12792969,0.76904297,0.7319336,0.89054585,0.4334315,0.76904297,0.7319336,3,2,-9,-19,7,2,2,-1
24.61344003677368,false,0.13916016,0.76416016,0.7314453,0.8926974,0.43435448,0.76416016,0.7314453,1,-5,-2,-3,-2,-2,0,-1
24.615544080734253,false,0.14160156,0.75683594,0.6948242,0.89409244,0.4345333,0.75683594,0.6948242,4,-1,0,4,-1,-1,-2,1
24.64341902732849,false,0.18310547,0.69677734,0.6904297,0.8954808,0.4298259,0.69677734,0.6904297,-5,-7,2,3,-1,-1,1,-1
24.67345106601715,false,0.18017578,0.6557617,0.68652344,0.89548916,0.42476374,0.6557617,0.68652344,-4,3,2,4,-1,1,0,0
24.675543069839478,false,0.21386719,0.6147461,0.65185547,0.8943696,0.4191995,0.6147461,0.65185547,1,-1,-1,-1,-2,-3,-3,0
24.703438997268677,false,0.2397461,0.6279297,0.6333008,0.892406,0.4127248,0.6279297,0.6333008,-3,-4,2,8,0,1,-2,-2
24.73348307609558,false,0.30126953,0.62890625,0.6123047,0.88943833,0.4057162,0.62890625,0.6123047,-5,0,-2,-2,-2,-2,-2,-3
24.735376000404358,false,0.34521484,0.62597656,0.5834961,0.88580716,0.39740166,0.62597656,0.5834961,6,9,3,7,3,0,0,-1
24.763485074043274,false,0.3461914,0.60009766,0.5473633,0.88109446,0.38875586,0.60009766,0.5473633,-3,1,-7,-21,0,0,1,0
24.793408036231995,false,0.35742188,0.61083984,0.5332031,0.87525654,0.37982717,0.61083984,0.5332031,-2,-5,0,4,-5,-1,-2,0
24.795544028282166,false,0.38964844,0.65185547,0.51464844,0.8683716,0.37067693,0.65185547,0.51464844,-2,-5,-1,-3,-7,-2,0,-2
24.823472023010254,false,0.47753906,0.6645508,0.578125,0.8607896,0.36151576,0.6645508,0.578125,2,-2,0,7,-3,-2,0,0
24.853487014770508,false,0.47460938,0.6430664,0.5161133,0.85189795,0.35291782,0.6430664,0.5161133,-3,2,0,3,3,-1,-2,0
24.855544090270996,false,0.42041016,0.6538086,0.4819336,0.84180367,0.34485143,0.6538086,0.4819336,8,4,3,-6,-2,2,0,1
24.883437991142273,false,0.42285156,0.66259766,0.43701172,0.83065337,0.33692458,0.66259766,0.43701172,3,-4,-5,1,-4,-3,-1,1
24.943863034248352,false,0.4638672,0.6894531,0.38720703,0.81880885,0.32850015,0.6894531,0.38720703,-7,-2,2,0,1,1,-2,-4
24.946421027183533,false,0.48486328,0.71435547,0.34375,0.806752,0.31798896,0.71435547,0.34375,-12,-3,0,-1,1,3,-1,-5
24.973568081855774,false,0.5708008,0.6484375,0.29052734,0.77996725,0.29486045,0.6484375,0.29052734,0,-3,-1,-6,-1,-2,0,1
24.975396037101746,false,0.6220703,0.6401367,0.26171875,0.76398325,0.28619617,0.6401367,0.26171875,-2,-7,-2,11,1,-2,0,0
25.00369107723236,false,0.64160156,0.65625,0.19140625,0.74658966,0.27814007,0.65625,0.19140625,4,1,0,-2,-2,-2,-2,0
25.033518075942993,false,0.7084961,0.67822266,0.18798828,0.72875404,0.26959017,0.67822266,0.18798828,-1,-1,-1,2,0,-1,-1,2
25.03552007675171,false,0.7758789,0.65527344,0.16992188,0.71093893,0.26025444,0.65527344,0.16992188,-2,-5,-2,-9,-4,-1,1,1
25.063444018363953,false,0.8144531,0.64746094,0.17236328,0.6926742,0.25164294,0.64746094,0.17236328,16,7,0,-5,0,-1,-3,0
25.093501091003418,false,0.81884766,0.6142578,0.095214844,0.6742336,0.24382757,0.6142578,0.095214844,8,0,-8,-20,-7,-2,3,4
25.09549605846405,false,0.7524414,0.63427734,0.03515625,0.6552094,0.23528945,0.63427734,0.03515625,-10,-1,4,4,-3,0,1,-5
25.123365998268127,false,0.8144531,0.5966797,0.013183594,0.63628465,0.22717041,0.5966797,0.013183594,1,14,-2,6,0,-4,-3,-3
25.15344202518463,false,0.8696289,0.55908203,-0.0078125,0.6174963,0.2203382,0.55908203,-0.0078125,-11,-3,-2,1,1,0,2,1
25.15537703037262,false,0.8569336,0.5541992,-0.055664062,0.59857744,0.21490681,0.5541992,-0.055664062,-10,0,-4,2,3,3,-2,-6
25.183348059654236,false,0.81347656,0.58251953,-0.13134766,0.5796575,0.2100854,0.58251953,-0.13134766,-4,-6,-1,-6,-6,-6,-3,-2
25.213566064834595,false,0.7939453,0.5917969,-0.23486328,0.5609566,0.20494965,0.5917969,-0.23486328,-22,-10,1,1,5,3,-3,-10
25.21542203426361,false,0.7871094,0.5830078,-0.30810547,0.54235005,0.19952086,0.5830078,-0.30810547,-5,-1,1,1,0,1,-3,-4
25.243449091911316,false,0.8408203,0.53564453,-0.34570312,0.5242298,0.19549519,0.53564453,-0.34570312,-6,2,4,-1,-2,0,-5,-9
25.273369073867798,false,0.75683594,0.49267578,-0.47851562,0.5058522,0.19219698,0.49267578,-0.47851562,20,-4,-4,-1,-9,-9,1,11
25.27550208568573,false,0.7138672,0.45703125,-0.53515625,0.48661885,0.1905461,0.45703125,-0.53515625,7,-2,-3,-3,-3,-7,-4,4
25.30343008041382,false,0.77246094,0.4350586,-0.5019531,0.46709493,0.19060989,0.4350586,-0.5019531,13,4,-1,0,3,3,4,6
25.333631992340088,false,0.78271484,0.39501953,-0.54248047,0.4485424,0.19109896,0.39501953,-0.54248047,22,10,2,4,-1,3,-16,11
25.3356990814209,false,0.69384766,0.4165039,-0.5444336,0.4304156,0.19201468,0.4165039,-0.5444336,-13,-10,-1,-2,2,3,10,-34
25.36379301548004,false,0.7011719,0.41064453,-0.5854492,0.4129464,0.192985,0.41064453,-0.5854492,16,-4,-2,-1,-2,-6,-12,-48
25.39350700378418,false,0.6323242,0.40429688,-0.6166992,0.397096,0.19336,0.40429688,-0.6166992,-43,-17,3,2,3,5,-1,-14
25.39548408985138,false,0.62109375,0.3852539,-0.62353516,0.38231915,0.19292958,0.3852539,-0.62353516,51,18,4,9,2,-4,5,55
25.42344307899475,false,0.6303711,0.35498047,-0.65478516,0.36840284,0.19317345,0.35498047,-0.65478516,-23,-3,-5,-4,2,7,12,-1
25.4535551071167,false,0.57128906,0.36279297,-0.7192383,0.35447934,0.19347443,0.36279297,-0.7192383,36,14,-11,-13,-8,-3,14,28
25.45552110671997,false,0.54296875,0.38916016,-0.7553711,0.3405044,0.19390258,0.38916016,-0.7553711,-29,-11,0,-4,-5,-1,1,1
25.48334300518036,false,0.56591797,0.35986328,-0.77197266,0.32776257,0.1945213,0.35986328,-0.77197266,1,-5,-3,-2,-4,-2,-2,22
25.513810992240906,false,0.5361328,0.3408203,-0.78222656,0.3164547,0.19554888,0.3408203,-0.78222656,3,-5,0,7,-2,-1,-3,-7
25.515533089637756,false,0.49169922,0.34814453,-0.83740234,0.30573034,0.1969028,0.34814453,-0.83740234,3,6,-3,-3,-1,-3,-5,10
25.543477058410645,false,0.4794922,0.3178711,-0.8432617,0.29571766,0.19836582,0.3178711,-0.8432617,-18,-16,-3,-7,-2,0,18,-2
25.574122071266174,false,0.4819336,0.2578125,-0.8378906,0.28704426,0.1997042,0.2578125,-0.8378906,-1,4,-2,-2,-1,-1,-11,-8
25.575543999671936,false,0.45654297,0.26611328,-0.85009766,0.27959272,0.20134826,0.26611328,-0.85009766,32,13,0,10,-11,-16,-17,-13
25.60355007648468,false,0.44189453,0.28808594,-0.86035156,0.27307194,0.2034917,0.28808594,-0.86035156,-23,-16,1,3,5,-1,4,14
25.633501052856445,false,0.44189453,0.19189453,-0.859375,0.26684156,0.20525806,0.19189453,-0.859375,-22,-16,1,50,4,6,-2,-5
25.635592103004456,false,0.44384766,0.19189453,-0.8461914,0.2615893,0.20726953,0.19189453,-0.8461914,5,8,-4,5,-6,-4,4,-1
25.663474082946777,false,0.40039062,0.20800781,-0.85839844,0.2573131,0.2090364,0.20800781,-0.85839844,-20,4,1,-47,1,4,-9,-13
25.69351100921631,false,0.39746094,0.1875,-0.86376953,0.25366384,0.21057272,0.1875,-0.86376953,-24,0,4,-35,7,4,-2,-8
25.695446014404297,false,0.40039062,0.20019531,-0.86376953,0.25127402,0.21178548,0.20019531,-0.86376953,18,9,-1,7,-5,-12,-12,-4
25.723347067832947,false,0.37304688,0.15283203,-0.8618164,0.24957645,0.21271066,0.15283203,-0.8618164,12,4,1,-4,-2,-3,-4,-25
25.753542065620422,false,0.37890625,0.099609375,-0.87402344,0.24773692,0.21349685,0.099609375,-0.87402344,3,3,3,7,1,3,14,11
25.755441069602966,false,0.39404297,0.14160156,-0.87353516,0.24565728,0.21483569,0.14160156,-0.87353516,28,7,-2,30,-5,-8,-6,13
25.78342306613922,false,0.3720703,0.17529297,-0.8857422,0.24473946,0.21574911,0.17529297,-0.8857422,-14,-9,-3,-36,0,5,9,7
25.81367599964142,false,0.3671875,0.106933594,-0.9082031,0.24347179,0.21563947,0.106933594,-0.9082031,-13,-1,1,-14,4,2,1,-5
25.815484046936035,false,0.3876953,0.09277344,-0.9033203,0.24139151,0.21618426,0.09277344,-0.9033203,28,14,-2,25,-7,-9,8,37
25.843441009521484,false,0.37939453,0.15917969,-0.91015625,0.23949341,0.21691121,0.15917969,-0.91015625,-28,-13,4,5,1,1,-6,-22
25.873489022254944,false,0.35498047,0.16503906,-0.9453125,0.23766537,0.21703596,0.16503906,-0.9453125,-11,-18,-6,-19,0,8,10,1
25.875436067581177,false,0.38232422,0.14257812,-0.921875,0.23553261,0.21697809,0.14257812,-0.921875,-7,-14,2,-3,-1,-2,-14,-18
25.903540015220642,false,0.38378906,0.16113281,-0.9272461,0.23284437,0.21734177,0.16113281,-0.9272461,8,2,-5,-27,3,7,10,-24
25.933608055114746,false,0.3881836,0.17578125,-0.91748047,0.23113625,0.21770874,0.17578125,-0.91748047,5,5,-3,12,2,0,-24,8
25.935692071914673,false,0.36767578,0.15673828,-0.9213867,0.22936533,0.21770786,0.15673828,-0.9213867,6,-7,0,5,-3,-6,-3,6
26.023730993270874,false,0.38085938,0.1171875,-0.9277344,0.22698179,0.21782684,0.1171875,-0.9277344,-8,2,-1,-2,-1,2,12,0
26.025772094726562,false,0.39501953,0.1430664,-0.8886719,0.22430286,0.21850456,0.1430664,-0.8886719,22,7,-3,10,-3,-7,8,1
26.053511023521423,false,0.38330078,0.05859375,-0.89501953,0.2180738,0.21978275,0.05859375,-0.89501953,-10,24,-1,13,0,-1,-7,12
26.055461049079895,false,0.36328125,0.1015625,-0.9111328,0.21495906,0.22075722,0.1015625,-0.9111328,32,11,-7,19,-1,2,0,14
26.083407044410706,false,0.36328125,0.17675781,-0.9145508,0.21221231,0.22191659,0.17675781,-0.9145508,-20,-7,4,15,3,2,-12,-29
26.113522052764893,false,0.34423828,0.17773438,-0.9321289,0.210444,0.22216246,0.17773438,-0.9321289,-6,-10,2,-18,5,4,-3,-19
26.11544108390808,false,0.36816406,0.047851562,-0.8984375,0.20880164,0.22174112,0.047851562,-0.8984375,-14,-8,-1,-20,2,-1,0,-14
26.143468022346497,false,0.36621094,0.0063476562,-0.90527344,0.20671634,0.22185235,0.0063476562,-0.90527344,26,-3,-4,12,-3,1,26,21
26.173548102378845,false,0.3544922,0.09765625,-0.9296875,0.20409726,0.22271259,0.09765625,-0.9296875,-31,-6,0,-16,-2,-2,-6,-14
26.175549030303955,false,0.32421875,0.14111328,-0.93603516,0.20202485,0.22308183,0.14111328,-0.93603516,18,-5,-9,-5,-7,-4,8,28
26.20342707633972,false,0.32421875,0.063964844,-0.92333984,0.20030859,0.22246338,0.063964844,-0.92333984,-2,5,3,-3,2,-5,-22,-8
26.23337709903717,false,0.33642578,0.022949219,-0.9013672,0.19842461,0.22198409,0.022949219,-0.9013672,-8,-6,0,-3,-8,-1,-18,-60
26.235506057739258,false,0.34277344,0.0390625,-0.91552734,0.19676974,0.2216101,0.0390625,-0.91552734,-14,-10,-9,-15,0,1,-16,4
26.263516068458557,false,0.3564453,0.05419922,-0.93359375,0.19548784,0.22124366,0.05419922,-0.93359375,-19,-6,-1,8,-4,-5,13,6
26.293560028076172,false,0.35058594,0.09472656,-0.92529297,0.19421403,0.22064227,0.09472656,-0.92529297,-28,1,7,-14,9,9,-10,-11
26.295451998710632,false,0.35009766,0.099121094,-0.9316406,0.19372627,0.21972735,0.099121094,-0.9316406,18,10,1,14,2,-5,10,15
26.32353901863098,false,0.34716797,0.06982422,-0.9277344,0.19365774,0.21831508,0.06982422,-0.9277344,35,4,2,-14,2,0,34,14
26.353524088859558,false,0.34472656,0.030761719,-0.9296875,0.19316968,0.21715568,0.030761719,-0.9296875,-1,6,-2,9,-6,-1,-8,14
26.35568106174469,false,0.3564453,0.07373047,-0.9433594,0.19213676,0.21667266,0.07373047,-0.9433594,-15,-7,2,-4,-2,-1,-25,-37
26.383406043052673,false,0.32080078,0.1303711,-0.95751953,0.19146702,0.21588103,0.1303711,-0.95751953,21,21,-2,45,-2,-18,-7,26
26.413555026054382,false,0.34228516,0.092285156,-0.94921875,0.19104324,0.21454218,0.092285156,-0.94921875,-15,-13,1,16,-2,-3,-24,10
26.415606021881104,false,0.34423828,0.005859375,-0.95751953,0.19011791,0.21343254,0.005859375,-0.95751953,-37,-30,1,-54,15,23,36,20
26.443355083465576,false,0.34814453,0.04638672,-0.99609375,0.18768033,0.21325368,0.04638672,-0.99609375,-2,-3,-3,-6,-2,1,4,5
26.473499059677124,false,0.34277344,0.110839844,-1.0317383,0.18475199,0.21386553,0.110839844,-1.0317383,-22,-12,-1,-4,0,2,-3,-25
26.4755140542984,false,0.32080078,0.12060547,-1.012207,0.1811508,0.2142926,0.12060547,-1.012207,15,1,-5,4,-7,-6,-1,-3
26.503566026687622,false,0.3125,0.09765625,-1.0097656,0.17724277,0.21508387,0.09765625,-1.0097656,50,16,-9,29,-10,-7,-57,6
26.533489108085632,false,0.31982422,0.024414062,-0.9970703,0.17267084,0.2158233,0.024414062,-0.9970703,12,4,-5,4,-9,-7,3,-3
26.536065101623535,false,0.3100586,0.036132812,-0.9892578,0.16723172,0.2173402,0.036132812,-0.9892578,13,6,-2,11,2,-1,23,-44
26.563988089561462,false,0.30078125,0.055664062,-0.99560547,0.16192524,0.21887068,0.055664062,-0.99560547,-37,3,1,-6,-3,-6,-15,-13
26.5933940410614,false,0.3076172,0.029785156,-0.99316406,0.15655126,0.2201483,0.029785156,-0.99316406,19,-1,-3,5,-5,-7,-17,-7
26.596074104309082,false,0.30273438,-0.03955078,-0.9975586,0.15136889,0.22137699,-0.03955078,-0.9975586,38,4,-5,22,-8,-1,-26,29
26.624101042747498,false,0.30322266,-0.05078125,-0.95751953,0.14562923,0.22289938,-0.05078125,-0.95751953,-3,-7,-2,4,-4,-7,0,23
26.653552055358887,false,0.29638672,-0.0029296875,-0.9345703,0.14056593,0.22467354,-0.0029296875,-0.9345703,-23,-4,4,-24,4,9,25,-4
26.656208038330078,false,0.30078125,-0.016601562,-0.92041016,0.13690244,0.22570898,-0.016601562,-0.92041016,38,1,2,9,-1,-7,19,-2
26.6840740442276,false,0.32128906,-0.16894531,-0.8979492,0.1336633,0.22606796,-0.16894531,-0.8979492,-16,-1,3,-2,10,26,-1,-12
26.713840007781982,false,0.31445312,-0.084472656,-0.9213867,0.13024524,0.22734934,-0.084472656,-0.9213867,31,-8,2,22,-8,-9,-9,8
26.71611499786377,false,0.27197266,0.024414062,-0.9057617,0.12774414,0.2283892,0.024414062,-0.9057617,-64,-16,5,-39,8,7,-10,12
26.744490027427673,false,0.2841797,-0.14257812,-0.88183594,0.1268311,0.22790535,-0.14257812,-0.88183594,-25,6,-3,-18,11,9,13,-21
26.774112105369568,false,0.28710938,-0.13964844,-0.89941406,0.12542543,0.22839023,-0.13964844,-0.89941406,40,20,3,37,0,-10,57,42
26.77674901485443,false,0.2758789,-0.016601562,-0.8666992,0.12487428,0.22893618,-0.016601562,-0.8666992,-8,-22,-4,-29,15,10,2,-12
26.80429208278656,false,0.25878906,-0.16455078,-0.875,0.124999896,0.22827129,-0.16455078,-0.875,-54,3,-2,-20,3,18,12,22
26.83346199989319,false,0.30273438,-0.1352539,-0.9086914,0.12457186,0.22869709,-0.1352539,-0.9086914,-8,-12,-1,-19,-8,-14,-10,-28
26.83551001548767,false,0.2763672,0.008300781,-0.8979492,0.12499806,0.22918347,0.008300781,-0.8979492,0,6,3,1,-8,-9,-13,14
26.863497018814087,false,0.25927734,-0.046875,-0.89697266,0.12652597,0.22857682,-0.046875,-0.89697266,11,-10,-6,-3,-6,-1,9,14
26.89349901676178,false,0.28222656,-0.13623047,-0.8828125,0.12780406,0.22808202,-0.13623047,-0.8828125,-30,-17,2,-22,7,2,-3,-25
26.923001050949097,false,0.27539062,-0.09082031,-0.92626953,0.12878516,0.22809012,-0.09082031,-0.92626953,-17,-3,-4,6,2,8,-1,-45
26.92478108406067,false,0.2680664,-0.09667969,-0.93847656,0.13018474,0.22796063,-0.09667969,-0.93847656,5,-10,0,-1,-3,-4,-2,35
26.953540086746216,false,0.2685547,-0.043945312,-0.9477539,0.13115886,0.22807848,-0.043945312,-0.9477539,19,15,-1,3,0,-9,24,26
26.956146001815796,false,0.28125,-0.014160156,-0.9477539,0.13293248,0.22802375,-0.014160156,-0.9477539,-29,-9,2,-33,7,1,-15,-25
26.984055042266846,false,0.30078125,-0.07714844,-0.94921875,0.13555568,0.2275944,-0.07714844,-0.94921875,-18,6,4,-19,1,-1,7,4
27.013864994049072,false,0.29296875,-0.115234375,-0.95996094,0.13757165,0.2271092,-0.115234375,-0.95996094,18,-5,-5,5,-9,-10,44,3
27.04362404346466,false,0.29882812,-0.03857422,-0.98291016,0.13927512,0.22728333,-0.03857422,-0.98291016,14,12,-5,15,-4,1,-27,-3
27.04555606842041,false,0.29638672,-0.052734375,-0.95751953,0.14123446,0.22692728,-0.052734375,-0.95751953,34,15,2,33,-8,-10,-8,21
27.073433995246887,false,0.3017578,-0.06640625,-0.96777344,0.14300178,0.22631267,-0.06640625,-0.96777344,46,17,-12,50,-21,-19,-12,10
27.075911045074463,false,0.30273438,-0.03955078,-0.98291016,0.14416765,0.22601728,-0.03955078,-0.98291016,-24,-7,-1,-4,-1,0,-15,-30
27.10428810119629,false,0.30908203,-0.037597656,-0.9560547,0.1461152,0.22545929,-0.037597656,-0.9560547,-4,-5,3,-38,6,6,42,-12
27.133572101593018,false,0.3149414,-0.05810547,-0.94628906,0.14800616,0.22454213,-0.05810547,-0.94628906,-21,-7,-3,-6,-3,0,-15,-48
27.16310405731201,false,0.3017578,-0.048339844,-0.9707031,0.14971872,0.22375411,-0.048339844,-0.9707031,18,5,0,11,-1,3,-3,27
27.1648610830307,false,0.31298828,-0.024414062,-0.95166016,0.1510549,0.22313403,-0.024414062,-0.95166016,-18,-1,2,-11,3,4,-44,-11
27.193410992622375,false,0.3022461,-0.0009765625,-0.95410156,0.15313062,0.22228047,-0.0009765625,-0.95410156,-4,-11,0,6,-1,2,3,15
27.22329604625702,false,0.3232422,0.0048828125,-0.9482422,0.15539569,0.2208865,0.0048828125,-0.9482422,-1,-6,-1,1,-2,1,-7,-60
27.224826097488403,false,0.3330078,0.0073242188,-0.9511719,0.15777433,0.21978545,0.0073242188,-0.9511719,1,-1,1,7,1,-5,1,11
27.25366699695587,false,0.3251953,0.011230469,-0.93115234,0.16021185,0.21862051,0.011230469,-0.93115234,5,1,-4,16,-6,-3,18,38
27.283123016357422,false,0.328125,0.0546875,-0.89990234,0.1629603,0.21758558,0.0546875,-0.89990234,-39,-6,1,-25,12,-1,-16,-22
27.284795999526978,false,0.3564453,0.04638672,-0.8911133,0.16686484,0.2161797,0.04638672,-0.8911133,3,-14,0,-16,-3,-3,11,10
27.34363603591919,false,0.35107422,0.043945312,-0.8979492,0.17114009,0.21471855,0.043945312,-0.8979492,8,8,4,-3,-1,0,-33,11
27.345502018928528,false,0.3413086,0.05908203,-0.89453125,0.1749819,0.21355483,0.05908203,-0.89453125,-1,-2,-2,1,-3,0,0,-4
27.373441100120544,false,0.3544922,0.10839844,-0.9003906,0.18274166,0.21087924,0.10839844,-0.9003906,47,27,2,13,-2,-3,-40,-8
27.40324902534485,false,0.35791016,0.12695312,-0.9145508,0.18700583,0.20946607,0.12695312,-0.9145508,2,-7,-5,4,-1,-7,11,-12
27.404835104942322,false,0.36572266,0.119140625,-0.90185547,0.19121939,0.20788166,0.119140625,-0.90185547,-10,-29,-7,9,-4,2,8,9
27.433441042900085,false,0.375,0.13916016,-0.9169922,0.19512576,0.2066612,0.13916016,-0.9169922,14,8,-1,-5,1,5,24,8
27.4632910490036,false,0.36669922,0.1899414,-0.9067383,0.19927841,0.20532085,0.1899414,-0.9067383,-14,-18,-3,2,-1,3,11,2
27.46480906009674,false,0.36083984,0.28808594,-0.89941406,0.20452677,0.20361124,0.28808594,-0.89941406,17,0,-2,-5,-4,-1,-17,-8
27.493508100509644,false,0.34814453,0.16796875,-0.91503906,0.20946793,0.20122838,0.16796875,-0.91503906,2,26,-1,2,-1,-3,-19,-21
27.52319610118866,false,0.41992188,0.100097656,-0.875,0.21489613,0.19872247,0.100097656,-0.875,-13,-5,-1,-2,-1,-4,1,6
27.524896025657654,false,0.421875,0.23046875,-0.8666992,0.22002187,0.19798917,0.23046875,-0.8666992,-13,-3,-5,-13,-2,0,29,6
27.553375005722046,false,0.41748047,0.35351562,-0.8754883,0.22606762,0.1971378,0.35351562,-0.8754883,4,-12,-4,-15,0,2,14,30
27.583067059516907,false,0.41210938,0.23730469,-0.9082031,0.23296395,0.19378059,0.23730469,-0.9082031,7,12,6,37,3,-1,-24,-41
27.584856033325195,false,0.44384766,0.13232422,-0.8544922,0.23943534,0.19097456,0.13232422,-0.8544922,-4,-4,-1,-2,0,-3,-4,29
27.613928079605103,false,0.4111328,0.33984375,-0.84765625,0.24492985,0.19109777,0.33984375,-0.84765625,-1,1,1,4,0,1,25,12
27.643214106559753,false,0.32226562,0.60058594,-0.80859375,0.2513385,0.19024336,0.60058594,-0.80859375,55,21,0,43,-11,-11,-19,-6
27.64494001865387,false,0.46435547,0.31054688,-0.9394531,0.261593,0.1816991,0.31054688,-0.9394531,-35,-11,4,-42,5,4,-18,-8
27.673501014709473,false,0.50097656,0.14208984,-0.6953125,0.2722795,0.17511092,0.14208984,-0.6953125,-9,-7,-2,-9,-1,0,12,12
27.703219056129456,false,0.48291016,0.36914062,-0.75,0.27917027,0.17608356,0.36914062,-0.75,-15,-8,-2,-7,1,-1,-5,-23
27.704838037490845,false,0.3544922,0.82373047,-0.7421875,0.28778172,0.1746832,0.82373047,-0.7421875,1,-7,-4,9,2,1,1,3
27.733532071113586,false,0.4428711,0.7270508,-0.7260742,0.30053157,0.16460878,0.7270508,-0.7260742,8,35,2,0,1,3,22,-1
27.763764023780823,false,0.5229492,0.27197266,-0.7114258,0.31633404,0.1492257,0.27197266,-0.7114258,-3,-20,-3,-3,2,4,-4,5
27.765440106391907,false,0.51123047,0.072753906,-0.56103516,0.32892066,0.13995455,0.072753906,-0.56103516,9,6,1,-3,-2,0,31,9
27.79340100288391,false,0.4736328,0.37109375,-0.57910156,0.3354463,0.1401355,0.37109375,-0.57910156,3,14,3,-1,0,0,-12,-1
27.82346999645233,false,0.46191406,0.8833008,-0.58203125,0.33989817,0.14257535,0.8833008,-0.58203125,-22,-15,-4,-7,-1,-2,-9,-11
27.825425028800964,false,0.5073242,1.0488281,-0.5996094,0.34839335,0.13812442,1.0488281,-0.5996094,0,-14,-3,15,-3,0,2,5
27.853639006614685,false,0.50439453,0.8183594,-0.6040039,0.3606552,0.12737982,0.8183594,-0.6040039,-12,-13,1,-11,0,1,-3,-5
27.883597016334534,false,0.4790039,0.48828125,-0.49853516,0.37351426,0.114007294,0.48828125,-0.49853516,-1,-2,-1,-8,-2,-1,-7,-5
27.88546907901764,false,0.5913086,0.34814453,-0.37695312,0.38517994,0.10607553,0.34814453,-0.37695312,3,-4,-4,-13,-5,-2,-4,-1
27.913371086120605,false,0.6303711,0.5595703,-0.31152344,0.39629576,0.10540625,0.5595703,-0.31152344,-3,-9,-1,2,0,-1,-1,-1
27.94364309310913,false,0.52783203,0.8745117,-0.37548828,0.404534,0.10815243,0.8745117,-0.37548828,-23,-15,-4,-6,-3,-3,-4,-9
27.94553804397583,false,0.56396484,0.9951172,-0.35791016,0.4132609,0.10796907,0.9951172,-0.35791016,-4,-7,4,19,0,-1,1,4
27.973603010177612,false,0.6298828,0.85546875,-0.26660156,0.4250393,0.10247573,0.85546875,-0.26660156,1,1,-1,0,1,-2,-2,1
28.00347602367401,false,0.5722656,0.64990234,-0.2163086,0.43815833,0.09277067,0.64990234,-0.2163086,-7,7,2,-8,0,0,-2,-2
28.005609035491943,false,0.51464844,0.5722656,-0.13964844,0.44915006,0.085203625,0.5722656,-0.13964844,-3,9,2,-10,1,0,0,-2
28.033567070961,false,0.6455078,0.65234375,-0.05810547,0.45909292,0.084348105,0.65234375,-0.05810547,5,4,-3,1,0,1,7,-4
28.06444799900055,false,0.73876953,0.81152344,-0.027832031,0.46973217,0.08831892,0.81152344,-0.027832031,-12,-20,1,4,2,-2,-6,-2
28.066040992736816,false,0.7998047,0.87060547,-0.056152344,0.48296762,0.09100275,0.87060547,-0.056152344,-5,-15,-5,-18,0,-1,-3,-4
28.093446016311646,false,0.71191406,0.8510742,-0.095214844,0.4977331,0.08892669,0.8510742,-0.095214844,9,12,-2,-19,-1,0,1,3
28.123515009880066,false,0.6333008,0.7446289,-0.061523438,0.51335335,0.08257842,0.7446289,-0.061523438,-5,0,-2,9,-2,1,-3,-3
28.125452995300293,false,0.6738281,0.61083984,0.057617188,0.5297153,0.076231636,0.61083984,0.057617188,6,-6,1,4,-1,-2,-2,2
28.153687000274658,false,0.68359375,0.5366211,0.10986328,0.54599804,0.07445983,0.5366211,0.10986328,13,-5,-6,-4,-5,-4,0,0
28.183434009552002,false,0.6533203,0.5854492,0.11035156,0.56090474,0.07690315,0.5854492,0.11035156,-11,-14,-1,2,-4,-2,-3,-5
28.185477018356323,false,0.67089844,0.6699219,0.11767578,0.5745919,0.08148292,0.6699219,0.11767578,-3,7,2,4,0,0,-1,-2
28.21387207508087,false,0.6821289,0.74560547,0.111328125,0.58739847,0.08636418,0.74560547,0.111328125,13,9,-1,2,3,1,0,2
28.273584008216858,false,0.70410156,0.76708984,0.1459961,0.600267,0.08947549,0.76708984,0.1459961,-1,0,-3,-3,0,0,0,1
28.275593996047974,false,0.70166016,0.74316406,0.1508789,0.61316144,0.08947787,0.74316406,0.1508789,38,27,4,5,1,-1,2,6
28.303539037704468,false,0.64697266,0.6640625,0.14892578,0.63665986,0.08447294,0.6640625,0.14892578,-11,-5,1,-5,-1,0,-1,-1
28.305474996566772,false,0.68408203,0.6455078,0.18603516,0.6474491,0.08221284,0.6455078,0.18603516,-5,-7,-4,-6,-5,-2,-2,-1
28.33346700668335,false,0.74121094,0.6269531,0.22607422,0.65795803,0.08105457,0.6269531,0.22607422,-1,5,1,0,-1,-3,-2,-2
28.363721013069153,false,0.78808594,0.6352539,0.234375,0.66835123,0.079896964,0.6352539,0.234375,2,9,-4,-9,-1,0,2,4
28.365592002868652,false,0.7910156,0.6035156,0.22705078,0.6783404,0.078368634,0.6035156,0.22705078,-26,-12,-2,4,0,-1,-2,-10
28.393421053886414,false,0.7392578,0.57714844,0.21972656,0.6874624,0.07531326,0.57714844,0.21972656,-9,-13,-5,-10,-1,0,1,1
28.423527002334595,false,0.67626953,0.5283203,0.23486328,0.6956692,0.07153222,0.5283203,0.23486328,24,7,2,7,-1,-2,-2,-5
28.42540407180786,false,0.6948242,0.49316406,0.2055664,0.7025143,0.06707761,0.49316406,0.2055664,-12,0,0,-5,-2,-3,-5,-5
28.453463077545166,false,0.65185547,0.54833984,0.19140625,0.7069627,0.06506278,0.54833984,0.19140625,1,0,2,3,-1,-1,-1,0
28.483517050743103,false,0.6533203,0.6123047,0.2133789,0.7097126,0.06512413,0.6123047,0.2133789,3,0,1,-1,-2,0,0,2
28.485498070716858,false,0.67529297,0.63671875,0.21435547,0.71128786,0.06567237,0.63671875,0.21435547,7,7,-6,-10,0,1,2,4
28.513318061828613,false,0.7036133,0.625,0.23828125,0.7122721,0.06548997,0.625,0.23828125,5,-5,7,7,0,3,2,1
28.543564081192017,false,0.7661133,0.5722656,0.265625,0.7132558,0.0631713,0.5722656,0.265625,3,-2,-5,-1,2,4,2,1
28.545653104782104,false,0.8310547,0.55322266,0.31298828,0.7146133,0.0598156,0.55322266,0.31298828,-7,-4,-5,-7,0,-1,-2,-4
28.5735000371933,false,0.8300781,0.52685547,0.31835938,0.7158079,0.056212407,0.52685547,0.31835938,-1,-2,2,3,1,-4,-2,1
28.60368800163269,false,0.7709961,0.52490234,0.33154297,0.71642035,0.05425947,0.52490234,0.33154297,-3,-2,-4,-1,-3,-5,-3,-2
28.60559904575348,false,0.75927734,0.4970703,0.31933594,0.7165739,0.0538346,0.4970703,0.31933594,-4,0,-5,-5,-3,0,-1,-4
28.63347899913788,false,0.74902344,0.5371094,0.31835938,0.71614504,0.054994177,0.5371094,0.31835938,3,1,1,4,-2,-3,-1,-2
28.66371202468872,false,0.77246094,0.5800781,0.3383789,0.7157565,0.05639626,0.5800781,0.3383789,-4,-4,5,10,-5,-2,0,0
28.66540503501892,false,0.80126953,0.57421875,0.34570312,0.7159606,0.055238225,0.57421875,0.34570312,-4,-2,-1,-7,-1,-2,-1,-2
28.69361901283264,false,0.7963867,0.5410156,0.35498047,0.7167355,0.051147435,0.5410156,0.35498047,1,-1,-3,-4,-2,-1,0,0
28.723438024520874,false,0.7895508,0.4658203,0.3671875,0.71799874,0.04553103,0.4658203,0.3671875,-6,0,-7,-11,-1,0,-2,0
28.725486993789673,false,0.7944336,0.4272461,0.38232422,0.71947545,0.041625574,0.4272461,0.38232422,-6,1,-5,-3,-3,-2,-4,-3
28.75361406803131,false,0.79296875,0.44384766,0.37597656,0.72097296,0.04046775,0.44384766,0.37597656,-25,-3,5,5,0,3,0,-3
28.78347110748291,false,0.78466797,0.43164062,0.36767578,0.7230159,0.039428353,0.43164062,0.36767578,5,-3,1,3,-1,-3,-1,-2
28.785429000854492,false,0.7817383,0.43066406,0.37402344,0.72561675,0.03729093,0.43066406,0.37402344,5,-1,2,3,2,-1,1,3
28.81322407722473,false,0.796875,0.41015625,0.3930664,0.7286221,0.034362055,0.41015625,0.3930664,7,0,1,3,0,-1,2,1
28.843438029289246,false,0.80810547,0.40722656,0.40673828,0.7319918,0.031677127,0.40722656,0.40673828,4,0,-3,-6,-2,-1,-1,1
28.845561027526855,false,0.80322266,0.38964844,0.3935547,0.735888,0.02929636,0.38964844,0.3935547,0,-3,1,4,0,-1,1,-2
28.873569011688232,false,0.8041992,0.39453125,0.3984375,0.74037445,0.027649598,0.39453125,0.3984375,2,0,-1,1,1,-2,-2,-2
28.903776049613953,false,0.81884766,0.41015625,0.42236328,0.7453135,0.026916983,0.41015625,0.42236328,-2,0,3,-1,7,0,-1,0
28.90541708469391,false,0.80615234,0.4194336,0.4248047,0.7503974,0.026122008,0.4194336,0.4248047,0,-1,-4,-3,-9,1,-1,0
28.933564066886902,false,0.8149414,0.40673828,0.44140625,0.7559104,0.024230637,0.40673828,0.44140625,1,-1,0,2,3,-1,0,0
28.963630080223083,false,0.8251953,0.37695312,0.453125,0.7619685,0.021423498,0.37695312,0.453125,0,-2,-4,-5,-3,1,0,-1
28.96537709236145,false,0.8125,0.35986328,0.45117188,0.76817137,0.018554274,0.35986328,0.45117188,-1,-1,3,0,1,0,-4,-2
28.993593096733093,false,0.8027344,0.38378906,0.46240234,0.77440476,0.017638948,0.38378906,0.46240234,2,0,0,3,4,0,0,1
29.023591995239258,false,0.8046875,0.3881836,0.46435547,0.780699,0.017700158,0.3881836,0.46435547,-1,-2,0,-2,-3,0,0,-1
29.025378108024597,false,0.7807617,0.37451172,0.4814453,0.7871699,0.017639147,0.37451172,0.4814453,0,-1,-3,1,5,0,1,1
29.053471088409424,false,0.7714844,0.34765625,0.4814453,0.793715,0.017151177,0.34765625,0.4814453,-3,-1,-2,0,-3,-1,-1,-2
29.083526015281677,false,0.7680664,0.3413086,0.49072266,0.80024034,0.0165407,0.3413086,0.49072266,0,0,-4,-4,-2,-2,0,-2
29.08544409275055,false,0.77197266,0.34570312,0.48291016,0.80640244,0.015930293,0.34570312,0.48291016,0,-1,-1,-3,-4,-1,-2,1
29.11374008655548,false,0.7548828,0.33154297,0.4897461,0.8123759,0.015258751,0.33154297,0.4897461,-1,-1,2,6,4,0,1,-1
29.143397092819214,false,0.7631836,0.31298828,0.5102539,0.8182652,0.014709974,0.31298828,0.5102539,-1,1,-4,-2,-5,-2,-1,-3
29.145531058311462,false,0.78222656,0.3149414,0.5161133,0.8239232,0.014526537,0.3149414,0.5161133,1,1,-1,-3,-2,0,0,0
29.1733820438385,false,0.8022461,0.31201172,0.50927734,0.8290371,0.014343202,0.31201172,0.50927734,1,-1,1,3,5,0,-2,-2
29.2035790681839,false,0.79003906,0.3071289,0.49951172,0.83374274,0.013977093,0.3071289,0.49951172,-2,-1,1,-5,-3,-4,0,2
29.205453991889954,false,0.7739258,0.28515625,0.52685547,0.83844906,0.013183737,0.28515625,0.52685547,-1,-1,-4,-2,-2,2,-1,-1
29.233644008636475,false,0.7919922,0.2680664,0.55322266,0.8431489,0.0128785595,0.2680664,0.55322266,0,-3,-3,-3,-6,-3,-1,-2
29.26353406906128,false,0.79589844,0.26953125,0.55908203,0.8476606,0.0130615905,0.26953125,0.55908203,-1,-3,4,4,-4,-2,0,-2
29.26536202430725,false,0.7758789,0.27539062,0.5566406,0.8519059,0.012939106,0.27539062,0.5566406,-1,-2,-2,-6,-2,-1,-2,1
29.293482065200806,false,0.76708984,0.26171875,0.58496094,0.8560761,0.012878373,0.26171875,0.58496094,-1,0,-1,0,-1,-4,-1,0
29.323509097099304,false,0.7729492,0.22851562,0.59716797,0.86027783,0.013305468,0.22851562,0.59716797,-2,-4,-2,0,-1,0,-1,0
29.32548201084137,false,0.76464844,0.23632812,0.59375,0.86437905,0.014160143,0.23632812,0.59375,-1,2,0,1,1,-1,-1,0
29.353588104248047,false,0.7363281,0.24121094,0.57128906,0.86817366,0.014221349,0.24121094,0.57128906,-1,0,-5,-9,-1,1,-1,0
29.383637070655823,false,0.70996094,0.1977539,0.58154297,0.8719287,0.012756954,0.1977539,0.58154297,-2,-1,2,0,-1,-1,-2,-2
29.385621070861816,false,0.73291016,0.16015625,0.59716797,0.8755319,0.011474381,0.16015625,0.59716797,-2,-2,-1,2,1,-1,1,0
29.41354203224182,false,0.7421875,0.1694336,0.60839844,0.8788433,0.012817355,0.1694336,0.60839844,-2,-2,-2,-1,-4,-1,-1,-2
29.443478107452393,false,0.7480469,0.19091797,0.5961914,0.881823,0.014770291,0.19091797,0.5961914,2,0,-1,4,2,0,1,-1
29.44556701183319,false,0.7705078,0.18701172,0.57666016,0.88453543,0.014526595,0.18701172,0.57666016,3,-1,0,0,-3,0,-1,0
29.473576068878174,false,0.7661133,0.19726562,0.5917969,0.8868145,0.014710048,0.19726562,0.5917969,0,-2,-5,-1,-6,0,0,-1
29.50351107120514,false,0.7792969,0.16992188,0.62939453,0.88877803,0.01727264,0.16992188,0.62939453,-1,0,-1,-10,4,1,2,1
29.505590081214905,false,0.7714844,0.19189453,0.5859375,0.89021105,0.023498885,0.19189453,0.5859375,0,1,0,1,-2,1,-3,-1
29.533542037010193,false,0.7524414,0.27392578,0.5698242,0.89125216,0.033142716,0.27392578,0.5698242,2,-1,-2,-2,0,-1,-1,1
29.563830018043518,false,0.74365234,0.2915039,0.60058594,0.89243436,0.03906422,0.2915039,0.60058594,-3,-2,1,5,6,1,-1,-1
29.565375089645386,false,0.75097656,0.20410156,0.62841797,0.8938801,0.03930753,0.20410156,0.62841797,-1,2,2,5,0,-2,0,1
29.593443036079407,false,0.7402344,0.09863281,0.6152344,0.895388,0.037048433,0.09863281,0.6152344,1,-3,-5,-8,-5,-2,-1,0
29.623542070388794,false,0.73095703,0.11621094,0.61083984,0.8964943,0.038757753,0.11621094,0.61083984,0,-1,4,3,-1,-1,-1,-2
29.625365018844604,false,0.7402344,0.15673828,0.57666016,0.89712393,0.044496078,0.15673828,0.57666016,-3,-2,-4,-6,-2,-1,0,-2
29.653502106666565,false,0.7397461,0.1586914,0.56103516,0.8975342,0.047363926,0.1586914,0.56103516,-2,0,1,3,-4,0,-2,0
29.683487057685852,false,0.72509766,0.12060547,0.53222656,0.89775425,0.04449404,0.12060547,0.53222656,-1,-4,-5,-3,-2,-2,0,0
29.6854430437088,false,0.6923828,0.06933594,0.50927734,0.89745975,0.03833003,0.06933594,0.50927734,0,-3,0,-1,-2,-3,-2,-2
29.713328003883362,false,0.70751953,0.087402344,0.5048828,0.8964365,0.035950232,0.087402344,0.5048828,-1,-4,-1,-2,-3,-1,-3,0
29.743540048599243,false,0.74853516,0.099121094,0.5288086,0.89486253,0.04144408,0.099121094,0.5288086,1,9,-4,-6,0,1,-1,0
29.773494005203247,false,0.79589844,0.1538086,0.5336914,0.89247817,0.052369464,0.1538086,0.5336914,-3,-4,-1,6,0,-1,-1,-2
29.77548909187317,false,0.7973633,0.23291016,0.5053711,0.8892834,0.06433114,0.23291016,0.5053711,-5,5,5,0,0,0,-2,-1
29.803413033485413,false,0.7475586,0.2290039,0.49560547,0.8858752,0.07354827,0.2290039,0.49560547,-6,-25,-14,-6,-4,-3,-1,-5
29.80546200275421,false,0.77685547,0.2109375,0.47558594,0.8822038,0.07971206,0.2109375,0.47558594,-2,10,14,2,-1,-1,-4,-3
29.83376407623291,false,0.8154297,0.2553711,0.5053711,0.87806916,0.08496262,0.2553711,0.5053711,1,2,8,-6,1,1,3,-1
29.863696098327637,false,0.8417969,0.265625,0.55029297,0.8736288,0.09161719,0.265625,0.55029297,0,-7,-12,3,4,2,2,-1
29.86541509628296,false,0.8310547,0.2055664,0.56152344,0.86880064,0.10150453,0.2055664,0.56152344,-2,12,1,-7,-6,-2,-2,-2
29.89344608783722,false,0.82177734,0.19091797,0.47314453,0.8632413,0.113711275,0.19091797,0.47314453,10,10,-37,-10,-10,-9,-4,5
29.92349600791931,false,0.78515625,0.18847656,0.4453125,0.85755825,0.12494105,0.18847656,0.4453125,25,42,69,22,3,-2,2,12
29.92541003227234,false,0.8642578,0.22851562,0.44580078,0.8518267,0.13464673,0.22851562,0.44580078,-3,-39,7,19,11,3,3,1
29.95359706878662,false,0.9111328,0.2705078,0.5229492,0.84673494,0.14654441,0.2705078,0.5229492,3,-1,-24,-1,-3,-3,-1,5
29.98354208469391,false,0.8232422,0.20507812,0.5004883,0.8422246,0.1590577,0.20507812,0.5004883,-2,-1,-41,1,2,3,0,-2
29.98545503616333,false,0.76416016,0.27978516,0.49023438,0.8384049,0.17047648,0.27978516,0.49023438,-14,-12,1,-6,4,2,0,-7
30.013442993164062,false,0.7246094,0.3232422,0.44970703,0.8353895,0.17761257,0.3232422,0.44970703,-7,-7,-3,2,1,-1,-3,-3
30.043745040893555,false,0.7441406,0.3017578,0.43701172,0.83306956,0.18072525,0.3017578,0.43701172,-93,3,26,-5,-1,0,0,0
30.0456759929657,false,0.80029297,0.20166016,0.4633789,0.83120596,0.18152493,0.20166016,0.4633789,118,-6,9,13,2,2,-7,-9
30.073652029037476,false,0.78027344,0.119140625,0.40722656,0.82916653,0.18127528,0.119140625,0.40722656,4,-8,-1,-9,-6,-2,1,-1
30.103729009628296,false,0.79052734,0.19384766,0.41210938,0.82727426,0.18060385,0.19384766,0.41210938,-15,21,-12,-6,-6,-6,4,12
30.105722069740295,false,0.8305664,0.21679688,0.42333984,0.8257603,0.17773774,0.21679688,0.42333984,-25,-3,-18,-4,1,0,14,10
30.134313106536865,false,0.8798828,0.1953125,0.44482422,0.8249698,0.17151268,0.1953125,0.44482422,-24,-19,-27,-8,12,-5,-13,-34
30.16348099708557,false,0.8852539,0.13085938,0.42626953,0.82447803,0.16412655,0.13085938,0.42626953,10,-13,2,-6,-9,2,13,22
30.165372014045715,false,0.8461914,0.087890625,0.4033203,0.8240037,0.15820871,0.087890625,0.4033203,10,10,-18,5,0,1,-6,13
30.19353199005127,false,0.81591797,0.07080078,0.3881836,0.8230752,0.15533751,0.07080078,0.3881836,1,2,23,2,0,2,2,4
30.223587036132812,false,0.8144531,0.08935547,0.3564453,0.8217023,0.15417218,0.08935547,0.3564453,-9,0,4,-11,-1,0,1,-5
30.225491046905518,false,0.8774414,0.14453125,0.33544922,0.82015014,0.15179826,0.14453125,0.33544922,3,5,6,-1,0,0,-13,-20
30.253509998321533,false,0.90722656,0.13720703,0.3330078,0.8190367,0.14581405,0.13720703,0.3330078,-16,-1,17,-2,0,-2,-5,-34
30.28348708152771,false,0.94970703,0.064453125,0.328125,0.8175892,0.13898101,0.064453125,0.328125,19,1,6,-4,-6,-1,0,6
30.31382703781128,false,1.0161133,0.038085938,0.30859375,0.8153606,0.13470326,0.038085938,0.30859375,8,2,-1,7,-5,-6,-10,19
30.315380096435547,false,1.0239258,0.08300781,0.3046875,0.81281257,0.13238645,0.08300781,0.3046875,3,4,-21,1,3,-1,-9,-7
30.34360408782959,false,0.9790039,0.08251953,0.30615234,0.8102484,0.12921248,0.08251953,0.30615234,-29,-8,-2,-13,-8,-3,-20,-1
30.346026062965393,false,0.9477539,0.037597656,0.35791016,0.808238,0.12494059,0.037597656,0.35791016,2,-10,4,12,0,-1,5,8
30.37391710281372,false,1.0112305,-0.016601562,0.3720703,0.8061147,0.12134141,-0.016601562,0.3720703,19,-6,1,-3,-6,-6,-13,1
30.40359604358673,false,0.9951172,0.012207031,0.35986328,0.80387056,0.11890204,0.012207031,0.35986328,-1,3,6,-10,-2,2,9,0
30.406114101409912,false,0.9169922,0.023925781,0.33935547,0.80213445,0.115541056,0.023925781,0.33935547,13,5,-4,-2,0,-1,-11,8
30.434099078178406,false,0.83740234,-0.009765625,0.3125,0.8006102,0.110719435,-0.009765625,0.3125,3,-6,-14,1,-1,2,12,-5
30.4638090133667,false,0.8652344,-0.05126953,0.31396484,0.7992047,0.1064467,-0.05126953,0.31396484,-11,8,5,-5,1,1,8,-5
30.46609902381897,false,0.9555664,-0.06982422,0.29638672,0.79717904,0.10412583,-0.06982422,0.29638672,0,-7,-10,0,1,2,9,5
30.494105100631714,false,0.92089844,-0.03125,0.26611328,0.7947071,0.103214264,-0.03125,0.26611328,0,-3,2,1,3,5,13,4
30.52350902557373,false,0.8745117,0.0029296875,0.27539062,0.7926679,0.1018072,0.0029296875,0.27539062,-44,-9,-8,-6,-1,-1,-16,-63
30.52598202228546,false,0.84228516,-0.014160156,0.296875,0.7911,0.0987578,-0.014160156,0.296875,22,-3,1,-5,1,3,1,38
30.554684042930603,false,0.9741211,-0.079589844,0.32128906,0.7898129,0.09594945,-0.079589844,0.32128906,11,6,11,2,1,-1,2,1
30.58416509628296,false,1.0727539,-0.09082031,0.28222656,0.78756344,0.094973944,-0.09082031,0.28222656,-23,-1,8,-3,-4,-4,-4,-2
30.586698055267334,false,0.9873047,-0.057617188,0.2578125,0.78554016,0.09503388,-0.057617188,0.2578125,5,-2,-8,0,2,-1,2,23
30.61399006843567,false,0.93847656,-0.068847656,0.2446289,0.7836579,0.09399745,-0.068847656,0.2446289,3,1,-6,-5,1,4,9,-7
30.643517017364502,false,0.9423828,-0.10253906,0.2680664,0.7823501,0.092163265,-0.10253906,0.2680664,-10,-2,1,3,-4,-6,-29,-27
30.67330801486969,false,0.95458984,-0.14892578,0.28515625,0.7813807,0.09039407,-0.14892578,0.28515625,9,2,-2,1,0,2,39,35
30.675037026405334,false,0.9746094,-0.14892578,0.27783203,0.7803829,0.08929299,-0.14892578,0.27783203,-28,-4,5,-4,-7,-2,-19,-17
30.703540086746216,false,0.97216797,-0.107421875,0.26220703,0.77936095,0.08886754,-0.107421875,0.26220703,11,-2,-11,-3,-3,-7,-3,-7
30.706053018569946,false,0.9667969,-0.09716797,0.25732422,0.7785426,0.08849849,-0.09716797,0.25732422,-14,-4,-3,2,-2,-6,3,-41
30.734416007995605,false,0.9848633,-0.103515625,0.26757812,0.77796996,0.08777034,-0.103515625,0.26757812,-6,-2,0,-5,-2,-2,5,-3
30.763976097106934,false,0.97802734,-0.125,0.26757812,0.7775456,0.08667201,-0.125,0.26757812,30,0,1,2,0,-2,-22,26
30.766008019447327,false,0.96191406,-0.12792969,0.24951172,0.77710164,0.08544944,-0.12792969,0.24951172,8,-1,0,5,6,4,-13,33
30.794708013534546,false,0.92333984,-0.10595703,0.2319336,0.7764976,0.084839776,-0.10595703,0.2319336,8,1,-1,1,-1,0,2,-8
30.82351505756378,false,0.9296875,-0.08984375,0.25341797,0.7761192,0.08483844,-0.08984375,0.25341797,13,1,0,2,0,1,-6,19
30.85348606109619,false,0.9458008,-0.091308594,0.26416016,0.77578163,0.084780544,-0.091308594,0.26416016,2,-6,-4,-7,0,1,2,-36
30.85540199279785,false,0.9394531,-0.09375,0.25976562,0.7755513,0.08435479,-0.09375,0.25976562,-2,4,0,0,-5,-4,13,25
30.883655071258545,false,0.9458008,-0.10888672,0.24804688,0.77527624,0.083435886,-0.10888672,0.24804688,1,-2,-6,2,-1,-1,11,9
30.8859680891037,false,0.9453125,-0.111328125,0.2553711,0.77498275,0.08288781,-0.111328125,0.2553711,-14,3,3,2,1,4,30,-14
30.91397500038147,false,0.94433594,-0.106933594,0.2529297,0.77475137,0.082461916,-0.106933594,0.2529297,2,0,-1,1,2,3,-5,-14
30.943518042564392,false,0.94677734,-0.107910156,0.2578125,0.7746424,0.081968546,-0.107910156,0.2578125,9,2,3,0,2,1,12,46
30.946055054664612,false,0.94628906,-0.11425781,0.25439453,0.774559,0.08124019,-0.11425781,0.25439453,-2,-4,-4,-2,1,-3,-5,18
30.974114060401917,false,0.9394531,-0.114746094,0.25732422,0.7745531,0.08062921,-0.114746094,0.25732422,-16,0,-1,-2,-7,-8,-12,-47
31.003594994544983,false,0.94921875,-0.11279297,0.26708984,0.7747051,0.08001563,-0.11279297,0.26708984,4,0,2,0,-2,-1,-11,-11
31.00651705265045,false,0.94873047,-0.10449219,0.2553711,0.77478415,0.07965128,-0.10449219,0.2553711,5,-1,0,-2,0,0,13,-17
31.03411304950714,false,0.94140625,-0.09423828,0.2631836,0.7749545,0.07964997,-0.09423828,0.2631836,-23,-1,0,-4,6,8,9,-5
31.063881993293762,false,0.95214844,-0.096191406,0.26123047,0.77512836,0.07958798,-0.096191406,0.26123047,10,0,0,1,-2,-5,-21,-6
31.093176007270813,false,0.9501953,-0.091308594,0.26416016,0.77540123,0.07946886,-0.091308594,0.26416016,-15,-7,-3,-5,-7,-3,-17,-1
31.09488010406494,false,0.93847656,-0.10058594,0.2602539,0.7756516,0.07892017,-0.10058594,0.2602539,5,1,-1,3,-5,-7,25,37
31.123423099517822,false,0.93896484,-0.10205078,0.26757812,0.77596927,0.078494176,-0.10205078,0.26757812,2,-1,0,2,2,1,-9,10
31.153130054473877,false,0.9477539,-0.09716797,0.25976562,0.7762149,0.0786164,-0.09716797,0.25976562,15,0,-1,-3,-1,-3,-12,-2
31.154994010925293,false,0.9375,-0.078125,0.26416016,0.7764898,0.07916266,-0.078125,0.26416016,6,0,1,2,2,1,1,3
31.183576107025146,false,0.93359375,-0.075683594,0.25976562,0.7767312,0.07934548,-0.075683594,0.25976562,1,-4,-4,-4,2,6,28,-7
31.21344006061554,false,0.94189453,-0.09033203,0.26904297,0.7769944,0.079225354,-0.09033203,0.26904297,-4,1,-1,-1,-2,-2,-2,-19
31.21507203578949,false,0.9448242,-0.08935547,0.26416016,0.7771603,0.07904049,-0.08935547,0.26416016,-2,3,-2,0,0,0,-11,18
31.24355399608612,false,0.9428711,-0.095214844,0.27246094,0.7773043,0.07892065,-0.095214844,0.27246094,0,-5,0,-1,-4,-3,-9,-4
31.273145079612732,false,0.9472656,-0.08935547,0.2685547,0.7774126,0.07910235,-0.08935547,0.2685547,-4,-1,1,0,-2,-1,-13,-11
31.275018095970154,false,0.93652344,-0.087890625,0.26464844,0.777428,0.079225995,-0.087890625,0.26464844,0,-1,-5,0,-1,0,-5,4
31.303526043891907,false,0.93066406,-0.088378906,0.26513672,0.7774541,0.07910036,-0.088378906,0.26513672,-5,-1,-1,-3,-3,-2,-4,-14
31.333209991455078,false,0.9458008,-0.091796875,0.2602539,0.7773671,0.079042904,-0.091796875,0.2602539,15,3,1,2,0,2,14,-1
31.334967017173767,false,0.9355469,-0.091308594,0.26367188,0.77727485,0.07903973,-0.091308594,0.26367188,-4,0,1,-2,1,0,-15,-27
