time,gesture,ax,ay,az,qw,qx,qy,qz,e0,e1,e2,e3,e4,e5,e6,e7
19.598049998283386,false,-0.8964844,0.296875,0.3232422,0.57035166,-0.2294469,0.296875,0.3232422,1,-2,-1,2,0,-1,1,-1
19.598793029785156,false,-0.8823242,0.30664062,0.32763672,0.5717974,-0.22412895,0.30664062,0.32763672,1,0,0,0,-1,-1,0,0
19.6004900932312,false,-0.8613281,0.28759766,0.34472656,0.5785019,-0.21142969,0.28759766,0.34472656,1,-1,0,0,1,0,-1,-2
19.601441025733948,false,-0.86083984,0.30517578,0.35351562,0.5816326,-0.20716351,0.30517578,0.35351562,1,0,-1,1,-1,-2,0,0
19.602991104125977,false,-0.8442383,0.30810547,0.34960938,0.58498406,-0.20288889,0.30810547,0.34960938,-2,-1,-1,-2,-1,-1,1,-1
19.618957996368408,false,-0.8305664,0.31835938,0.3461914,0.5886497,-0.19886155,0.31835938,0.3461914,0,0,-2,-1,-1,0,-2,-1
19.621519088745117,false,-0.8183594,0.33154297,0.35888672,0.5925587,-0.19526115,0.33154297,0.35888672,-1,-1,-1,1,-1,-2,0,-1
19.6492201089859,false,-0.81640625,0.33789062,0.36523438,0.59682864,-0.19251356,0.33789062,0.36523438,0,-1,-1,0,0,-2,-1,-2
19.67873704433441,false,-0.80908203,0.33984375,0.38232422,0.60139364,-0.19049524,0.33984375,0.38232422,-1,0,-2,-1,1,-2,-1,-1
19.681064009666443,false,-0.80126953,0.32714844,0.38867188,0.60623896,-0.1890987,0.32714844,0.38867188,0,-2,-1,0,0,1,-1,0
19.70925009250641,false,-0.79833984,0.3203125,0.39453125,0.6112256,-0.18793325,0.3203125,0.39453125,-1,1,0,-2,0,0,0,-2
19.73879301548004,false,-0.8017578,0.32763672,0.39404297,0.616302,-0.18683772,0.32763672,0.39404297,0,-1,-1,-2,-2,2,-1,-1
19.741162061691284,false,-0.81103516,0.35253906,0.40576172,0.6211597,-0.18524316,0.35253906,0.40576172,-3,-1,0,1,-2,0,-1,0
19.76938509941101,false,-0.8203125,0.3642578,0.41308594,0.62569493,-0.1831734,0.3642578,0.41308594,-1,-1,-1,0,1,-1,-1,0
19.79878807067871,false,-0.80859375,0.35498047,0.42285156,0.629907,-0.18079308,0.35498047,0.42285156,0,-2,0,-2,-2,0,-1,-1
19.80112910270691,false,-0.79833984,0.34521484,0.4272461,0.6341354,-0.17792904,0.34521484,0.4272461,0,-1,0,0,-2,-3,-2,0
19.82917809486389,false,-0.7895508,0.3544922,0.4272461,0.638207,-0.17420073,0.3544922,0.4272461,0,-2,-1,-1,1,0,0,0
19.858779072761536,false,-0.7739258,0.3671875,0.4321289,0.64211357,-0.17005023,0.3671875,0.4321289,-1,0,-2,1,-1,-1,-1,-2
19.861258029937744,false,-0.7680664,0.38916016,0.43554688,0.64592236,-0.16572286,0.38916016,0.43554688,-1,0,-3,-1,1,-2,-3,-1
19.88983404636383,false,-0.7651367,0.3930664,0.44482422,0.6495605,-0.16138302,0.3930664,0.44482422,-2,-2,-1,0,0,-1,-2,0
19.949234008789062,false,-0.74560547,0.40771484,0.44970703,0.6528689,-0.15686922,0.40771484,0.44970703,0,-1,-1,-3,0,-1,0,-1
19.951043009757996,false,-0.7548828,0.41455078,0.4560547,0.65590805,-0.15265457,0.41455078,0.4560547,-2,0,0,1,-2,-3,0,1
19.979405999183655,false,-0.7529297,0.3984375,0.47216797,0.66141343,-0.14533272,0.3984375,0.47216797,-1,-1,-2,-1,0,0,-2,-2
19.98207402229309,false,-0.7631836,0.3852539,0.47705078,0.6640997,-0.14203677,0.3852539,0.47705078,0,0,0,0,0,-2,-1,-2
20.009327054023743,false,-0.7553711,0.38378906,0.47216797,0.6666641,-0.1386798,0.38378906,0.47216797,-1,-1,0,0,-1,-1,0,-1
20.03880500793457,false,-0.76904297,0.37353516,0.4716797,0.6691075,-0.13526201,0.37353516,0.4716797,1,-1,0,-2,1,0,-1,-1
20.04132103919983,false,-0.78466797,0.3696289,0.4638672,0.6716514,-0.13177894,0.3696289,0.4638672,0,0,-1,-1,0,-2,-2,1
20.069441080093384,false,-0.76123047,0.37060547,0.46777344,0.6740306,-0.1279944,0.37060547,0.46777344,-1,-1,0,-1,1,-3,0,-2
20.09883403778076,false,-0.7944336,0.3618164,0.45361328,0.67637694,-0.12470337,0.3618164,0.45361328,-1,-1,0,-2,-2,1,-1,0
20.101323008537292,false,-0.79003906,0.36523438,0.46289062,0.67867476,-0.12140337,0.36523438,0.46289062,-2,-1,-1,0,2,0,-1,-1
20.12942600250244,false,-0.7861328,0.3491211,0.4555664,0.68104196,-0.118105054,0.3491211,0.4555664,0,0,-3,-2,0,0,-2,-1
20.218947052955627,false,-0.81152344,0.359375,0.44482422,0.6832573,-0.11481212,0.359375,0.44482422,-2,-1,-1,0,1,-1,0,0
20.221017003059387,false,-0.8149414,0.37109375,0.4428711,0.68544567,-0.11133151,0.37109375,0.4428711,-1,-2,0,1,-1,0,0,0
20.249502062797546,false,-0.8828125,0.36083984,0.41503906,0.69474083,-0.100652575,0.36083984,0.41503906,0,-1,-2,0,-4,-1,-1,0
20.278747081756592,false,-0.86572266,0.38671875,0.41259766,0.6969719,-0.09716957,0.38671875,0.41259766,-1,-3,-3,-1,1,1,-1,0
20.308140993118286,false,-0.8496094,0.40771484,0.4248047,0.69895405,-0.09290089,0.40771484,0.4248047,-1,0,-1,-1,-3,1,-2,-1
20.3107670545578,false,-0.8935547,0.4033203,0.40234375,0.70073104,-0.08954464,0.4033203,0.40234375,0,0,0,-1,-1,-1,1,0
20.339534997940063,false,-0.85058594,0.42236328,0.421875,0.7016832,-0.086245514,0.42236328,0.421875,0,-1,-1,1,-1,2,1,-2
20.428205013275146,false,-0.8300781,0.45751953,0.42041016,0.70313346,-0.08300881,0.45751953,0.42041016,-1,-1,-1,3,-1,-2,0,-1
20.43049705028534,false,-0.87890625,0.3623047,0.4248047,0.70408946,-0.0808772,0.3623047,0.4248047,-2,0,0,-7,0,-2,-2,-2
20.43281602859497,false,-0.8125,0.44580078,0.4008789,0.70462865,-0.077152684,0.44580078,0.4008789,1,-1,-2,6,2,1,1,-2
20.45873999595642,false,-0.85253906,0.4482422,0.36816406,0.7047071,-0.067388184,0.4482422,0.36816406,0,-1,-1,-2,-1,-2,-1,0
20.4877769947052,false,-0.81640625,0.45166016,0.375,0.7046919,-0.0651283,0.45166016,0.375,-1,-1,0,-3,-3,-2,-3,1
20.489402055740356,false,-0.80029297,0.45947266,0.36132812,0.7044271,-0.06311218,0.45947266,0.36132812,0,1,0,-5,-2,0,-1,-1
20.5180881023407,false,-0.8461914,0.46289062,0.359375,0.7039757,-0.06201676,0.46289062,0.359375,1,-1,-2,-1,1,-3,0,0
20.577901005744934,false,-0.8208008,0.47460938,0.35107422,0.7032368,-0.06189412,0.47460938,0.35107422,0,-1,1,3,-2,-2,0,-1
20.579673051834106,false,-0.8339844,0.453125,0.36621094,0.7023609,-0.063357145,0.453125,0.36621094,0,1,0,1,2,-1,-2,-1
20.58198606967926,false,-0.8330078,0.43017578,0.3569336,0.70137763,-0.065981135,0.43017578,0.3569336,1,0,-2,-4,0,-2,1,-1
20.638888001441956,false,-0.86621094,0.39892578,0.35546875,0.7004257,-0.06970685,0.39892578,0.35546875,0,0,-2,-1,-2,-1,-2,-2
20.64025902748108,false,-0.8432617,0.38671875,0.36669922,0.6990219,-0.0734913,0.38671875,0.36669922,-2,-1,-1,0,-2,0,-1,0
20.642699003219604,false,-0.8491211,0.39648438,0.3779297,0.6976079,-0.07745773,0.39648438,0.3779297,-1,-1,-2,0,0,0,-1,0
20.668251037597656,false,-0.84277344,0.390625,0.3725586,0.69577575,-0.081730306,0.390625,0.3725586,0,-2,-1,-1,0,-3,-1,0
20.669791102409363,false,-0.8598633,0.3803711,0.38183594,0.6938731,-0.0866731,0.3803711,0.38183594,-2,-3,-1,-3,-1,0,-2,0
20.698025107383728,false,-0.8486328,0.36523438,0.39013672,0.6918447,-0.0918594,0.36523438,0.39013672,-2,0,0,-2,-1,1,-1,-2
20.72830605506897,false,-0.8388672,0.35791016,0.40722656,0.6897373,-0.09692945,0.35791016,0.40722656,1,0,-2,-1,0,-1,0,0
20.72993803024292,false,-0.8457031,0.35498047,0.41552734,0.68748266,-0.101935185,0.35498047,0.41552734,-1,0,-2,-1,0,1,0,-2
20.758235096931458,false,-0.8598633,0.3515625,0.42382812,0.68522406,-0.10694037,0.3515625,0.42382812,-4,-2,1,0,-2,-1,0,0
20.787804007530212,false,-0.85058594,0.34716797,0.43164062,0.6828502,-0.11176354,0.34716797,0.43164062,2,-1,-1,-1,-1,-2,-1,-2
20.78945803642273,false,-0.8574219,0.3251953,0.4326172,0.6806833,-0.11651941,0.3251953,0.4326172,-2,-2,1,0,-1,-1,0,2
20.848716020584106,false,-0.84765625,0.31054688,0.45214844,0.6785112,-0.12030817,0.31054688,0.45214844,0,-1,-1,-1,-4,1,-1,0
20.8510080575943,false,-0.86816406,0.3359375,0.46875,0.6762391,-0.12329659,0.3359375,0.46875,-1,0,-1,-1,-2,-1,1,-1
20.878745079040527,false,-0.8339844,0.2993164,0.47216797,0.67210287,-0.12787718,0.2993164,0.47216797,0,1,-1,-1,0,-2,-1,0
20.908568024635315,false,-0.8359375,0.28515625,0.4765625,0.67030406,-0.12909244,0.28515625,0.4765625,-1,-2,-2,0,-1,-2,-1,-2
20.910686016082764,false,-0.8417969,0.2939453,0.48339844,0.66862375,-0.12934212,0.2939453,0.48339844,-1,1,-1,1,0,2,-1,0
20.938634037971497,false,-0.8286133,0.32177734,0.49853516,0.6670228,-0.12872905,0.32177734,0.49853516,-2,-1,-1,0,1,-2,-2,0
20.968026995658875,false,-0.80078125,0.33447266,0.5058594,0.665435,-0.1274471,0.33447266,0.5058594,-2,-2,-1,-1,1,1,0,-1
20.970118045806885,false,-0.79345703,0.3251953,0.5058594,0.6640326,-0.12573831,0.3251953,0.5058594,1,-1,-3,-1,-2,-1,0,-3
20.998520016670227,false,-0.7973633,0.3256836,0.5078125,0.66287315,-0.12347996,0.3256836,0.5078125,-2,-1,-1,-2,1,-2,0,0
21.058033108711243,false,-0.7973633,0.34033203,0.50439453,0.66185814,-0.12055426,0.34033203,0.50439453,0,-2,0,-2,-1,-3,-1,-2
21.060410022735596,false,-0.79345703,0.35351562,0.5131836,0.66105723,-0.11707366,0.35351562,0.5131836,-1,0,1,-1,1,0,0,0
21.089097023010254,false,-0.77978516,0.36279297,0.51464844,0.6603772,-0.11334878,0.36279297,0.51464844,-1,-1,-2,0,-3,-1,0,0
21.09055006504059,false,-0.7729492,0.36523438,0.51904297,0.65981543,-0.10937921,0.36523438,0.51904297,1,0,-2,1,-2,0,-1,-1
21.092374086380005,false,-0.76464844,0.36621094,0.5185547,0.6594505,-0.10498471,0.36621094,0.5185547,-1,-2,-2,0,-3,-1,-1,0
21.118577003479004,false,-0.75634766,0.36621094,0.49902344,0.659228,-0.10034915,0.36621094,0.49902344,1,1,-2,1,1,0,0,-2
21.147948026657104,false,-0.76123047,0.3779297,0.5058594,0.6591653,-0.09564886,0.3779297,0.5058594,0,-2,0,0,0,0,-1,-1
21.1498920917511,false,-0.7631836,0.39501953,0.4975586,0.65924937,-0.09100461,0.39501953,0.4975586,-2,-1,-1,-1,-1,-1,-1,0
21.17820107936859,false,-0.7480469,0.39990234,0.49658203,0.65940887,-0.086737014,0.39990234,0.49658203,-1,0,0,0,1,-2,0,0
21.207900047302246,false,-0.7470703,0.40234375,0.49902344,0.65964764,-0.08289086,0.40234375,0.49902344,0,-1,0,-3,0,0,-1,-1
21.209729075431824,false,-0.74316406,0.40771484,0.5,0.6599475,-0.07934996,0.40771484,0.5,-1,-1,-2,0,-1,-1,0,1
21.238150000572205,false,-0.7446289,0.4140625,0.50927734,0.66037744,-0.07611523,0.4140625,0.50927734,-1,-2,0,0,0,-1,-3,-1
21.32811999320984,false,-0.74658203,0.41357422,0.5083008,0.66093564,-0.073064275,0.41357422,0.5083008,1,-1,-1,0,-1,-3,-2,-3
21.330173015594482,false,-0.73535156,0.41455078,0.5102539,0.6615456,-0.07013433,0.41455078,0.5102539,-2,0,-2,-2,-2,1,-2,0
21.33253002166748,false,-0.72558594,0.42089844,0.51171875,0.6622674,-0.06726439,0.42089844,0.51171875,2,0,0,-2,0,0,-1,-1
21.35824203491211,false,-0.71972656,0.43554688,0.5126953,0.66569686,-0.05939144,0.43554688,0.5126953,-1,0,0,2,0,-1,-1,-1
21.38823902606964,false,-0.72265625,0.43701172,0.5078125,0.6672663,-0.056826286,0.43701172,0.5078125,0,-1,0,-1,-2,0,0,-2
21.390332102775574,false,-0.7338867,0.43359375,0.5048828,0.6691543,-0.054384425,0.43359375,0.5048828,-3,-1,-1,-2,1,0,-1,1
21.41852605342865,false,-0.7314453,0.44433594,0.5102539,0.671129,-0.05200563,0.44433594,0.5102539,-1,-1,-3,-1,-2,-2,-1,-2
21.448262095451355,false,-0.73828125,0.45166016,0.5024414,0.6733015,-0.049867406,0.45166016,0.5024414,-2,-1,1,0,-1,0,0,2
21.450955033302307,false,-0.7426758,0.44726562,0.5107422,0.67563283,-0.047792982,0.44726562,0.5107422,-1,1,-1,-2,-1,0,-2,0
21.508020043373108,false,-0.73779297,0.45166016,0.5058594,0.6780148,-0.045473624,0.45166016,0.5058594,-1,-1,-1,0,-3,-1,0,-1
21.539535999298096,false,-0.7446289,0.4404297,0.5024414,0.68056494,-0.043275386,0.4404297,0.5024414,-1,0,0,-1,0,0,0,-1
21.569180011749268,false,-0.7324219,0.46972656,0.47802734,0.6883408,-0.035585944,0.46972656,0.47802734,0,-1,1,-1,-2,-1,0,-1
21.57215702533722,false,-0.7324219,0.47216797,0.48242188,0.69107985,-0.03296088,0.47216797,0.48242188,-2,-1,0,-2,-1,-1,0,-1
21.59809708595276,false,-0.7363281,0.48632812,0.47802734,0.6938182,-0.030213779,0.48632812,0.47802734,-2,0,0,0,0,-2,1,1
21.628146052360535,false,-0.7368164,0.5053711,0.48535156,0.6965661,-0.027711269,0.5053711,0.48535156,-1,-1,-2,3,0,-1,-1,-1
21.630199074745178,false,-0.73535156,0.48291016,0.4814453,0.6994336,-0.025513854,0.48291016,0.4814453,-1,0,-1,-3,0,-1,2,-1
21.688796043395996,false,-0.7348633,0.47851562,0.48291016,0.70230067,-0.023255393,0.47851562,0.48291016,0,-3,0,1,-1,-1,-2,0
21.690115094184875,false,-0.7363281,0.4873047,0.48339844,0.70516616,-0.020996897,0.4873047,0.48339844,-1,-1,1,-1,-1,-1,-2,-1
21.77885901927948,false,-0.74072266,0.49658203,0.4921875,0.7107242,-0.015930867,0.49658203,0.4921875,-2,-1,-3,-1,0,-1,0,-1
21.838710069656372,false,-0.7495117,0.48583984,0.4790039,0.71348715,-0.013367584,0.48583984,0.4790039,-1,1,0,-1,0,0,-1,-1
21.868957996368408,false,-0.75097656,0.49169922,0.49951172,0.7299026,0.010193489,0.49169922,0.49951172,-1,0,-1,1,-1,0,0,0
21.8717041015625,false,-0.73828125,0.49072266,0.5024414,0.7325387,0.016236588,0.49072266,0.5024414,-1,1,-1,1,-1,-1,-1,0
21.89815902709961,false,-0.7368164,0.51123047,0.50439453,0.73510647,0.022951096,0.51123047,0.50439453,-2,-1,-3,-2,-2,0,0,-2
21.95809304714203,false,-0.7348633,0.5205078,0.4951172,0.73769474,0.03039649,0.5205078,0.4951172,-1,-1,1,-1,-2,0,0,0
21.9600510597229,false,-0.71533203,0.5253906,0.4873047,0.7402165,0.038393352,0.5253906,0.4873047,0,-1,-1,1,-1,-1,-1,0
21.962146997451782,false,-0.6982422,0.5361328,0.4892578,0.7426513,0.046938345,0.5361328,0.4892578,0,0,-2,0,0,-2,-2,-2
21.98827600479126,false,-0.6801758,0.54589844,0.4765625,0.74479544,0.055789463,0.54589844,0.4765625,1,-3,0,-2,-1,-2,-1,0
21.990302085876465,false,-0.66503906,0.5551758,0.47314453,0.74675137,0.06494552,0.5551758,0.47314453,0,-2,-2,-2,-1,-2,-1,-2
22.018176078796387,false,-0.64941406,0.5571289,0.46679688,0.748589,0.07416304,0.5571289,0.46679688,-1,1,0,6,6,3,0,-1
22.048274040222168,false,-0.6333008,0.57958984,0.45263672,0.7501075,0.08362335,0.57958984,0.45263672,-1,0,-1,-2,-3,-3,0,-1
22.050507068634033,false,-0.62646484,0.59375,0.44384766,0.75146365,0.092719786,0.59375,0.44384766,0,-1,-1,-2,-2,-2,0,0
22.108004093170166,false,-0.625,0.6035156,0.4399414,0.7527298,0.10108016,0.6035156,0.4399414,-1,-1,-2,-4,0,1,-1,0
22.110370993614197,false,-0.6220703,0.61621094,0.4399414,0.7539618,0.1085285,0.61621094,0.4399414,0,-1,-1,0,1,-1,-1,0
22.112320065498352,false,-0.6074219,0.6171875,0.43701172,0.755291,0.11499662,0.6171875,0.43701172,-2,-1,-2,-2,-2,-2,-3,0
22.138038992881775,false,-0.61572266,0.63134766,0.43652344,0.75650173,0.12067161,0.63134766,0.43652344,1,-1,-2,0,-1,-2,0,-2
22.168416023254395,false,-0.6201172,0.6274414,0.453125,0.75786483,0.12549694,0.6274414,0.453125,-1,0,-1,0,-3,0,-1,-1
22.170780062675476,false,-0.61816406,0.6269531,0.45117188,0.7591204,0.12982625,0.6269531,0.45117188,-1,-2,0,-2,-1,-2,-1,0
22.198098063468933,false,-0.61572266,0.6298828,0.4560547,0.76021624,0.1339763,0.6298828,0.4560547,-1,-1,-1,-2,1,-1,-2,-1
22.22825002670288,false,-0.61035156,0.63623047,0.4580078,0.7611619,0.13813227,0.63623047,0.4580078,-2,-1,0,-2,0,0,0,-1
22.23046910762787,false,-0.59716797,0.6455078,0.4584961,0.761927,0.14258283,0.6455078,0.4584961,0,-1,0,-2,-2,-1,0,0
22.258121013641357,false,-0.59521484,0.64746094,0.4560547,0.76245165,0.14716764,0.64746094,0.4560547,1,-2,0,1,-1,0,1,0
22.28838801383972,false,-0.58154297,0.66015625,0.4506836,0.7627261,0.15186161,0.66015625,0.4506836,1,0,-1,-2,-1,-1,-1,-2
22.290340065956116,false,-0.58496094,0.6591797,0.43310547,0.7626942,0.15656747,0.6591797,0.43310547,-2,0,-2,0,-2,0,-1,0
22.31822907924652,false,-0.5649414,0.66796875,0.42578125,0.7624264,0.16138463,0.66796875,0.42578125,-1,0,-1,-1,0,1,-2,-1
22.348169088363647,false,-0.5620117,0.67578125,0.4189453,0.7618317,0.16651526,0.67578125,0.4189453,0,-2,-1,-1,-1,-1,0,-1
22.350481033325195,false,-0.56103516,0.69140625,0.40527344,0.76089543,0.17157686,0.69140625,0.40527344,0,-1,-1,-1,-2,-2,-1,-2
22.378576040267944,false,-0.56640625,0.71484375,0.40283203,0.75981456,0.17628087,0.71484375,0.40283203,-1,-1,-1,0,2,0,0,0
22.408621072769165,false,-0.5756836,0.7241211,0.39453125,0.7586672,0.18012929,0.7241211,0.39453125,0,-1,-1,-1,-2,0,0,0
22.41101109981537,false,-0.58203125,0.7055664,0.37451172,0.7574275,0.18348192,0.7055664,0.37451172,-1,-2,-2,-2,1,-1,-1,0
22.43862807750702,false,-0.59277344,0.7241211,0.36279297,0.75593066,0.18670908,0.7241211,0.36279297,-2,-1,-1,0,-1,-1,-1,-2
22.469022035598755,false,-0.6147461,0.7416992,0.3461914,0.7544314,0.18897408,0.7416992,0.3461914,0,-1,-1,-2,-1,1,-1,-1
22.47135901451111,false,-0.64160156,0.73291016,0.34423828,0.753257,0.18958075,0.73291016,0.34423828,-1,-1,0,1,0,-2,-1,-2
22.498364090919495,false,-0.6586914,0.72314453,0.34326172,0.75235474,0.18854648,0.72314453,0.34326172,0,0,-1,0,-1,-1,-2,1
22.528502106666565,false,-0.6743164,0.6948242,0.34326172,0.75169444,0.18586355,0.6948242,0.34326172,0,-2,-1,-1,-3,-1,0,-1
22.531345009803772,false,-0.68652344,0.67089844,0.36035156,0.75118977,0.18238035,0.67089844,0.36035156,0,1,1,-1,0,0,1,-2
22.558609008789062,false,-0.6982422,0.6557617,0.37890625,0.75070584,0.1786581,0.6557617,0.37890625,0,0,-1,2,1,-2,0,-1
22.58872699737549,false,-0.7011719,0.6381836,0.37548828,0.75008285,0.17511496,0.6381836,0.37548828,-3,1,-1,1,-1,-1,0,-1
22.591109037399292,false,-0.70458984,0.6333008,0.3828125,0.7493786,0.17182544,0.6333008,0.3828125,1,0,0,0,-1,-1,-2,0
22.6181880235672,false,-0.69189453,0.6328125,0.3955078,0.7487428,0.16888982,0.6328125,0.3955078,-1,0,-1,-1,-2,-2,-3,0
22.648186087608337,false,-0.67578125,0.62060547,0.39941406,0.7480462,0.16639526,0.62060547,0.39941406,-2,-2,-1,0,-1,-1,-1,-1
22.650277018547058,false,-0.67285156,0.6225586,0.40185547,0.7473006,0.16450013,0.6225586,0.40185547,-1,0,-1,0,-2,0,-1,-1
22.678271055221558,false,-0.66552734,0.6274414,0.39160156,0.74649394,0.1634596,0.6274414,0.39160156,0,-2,-2,-4,-1,-1,0,-1
22.708730101585388,false,-0.68652344,0.63378906,0.37304688,0.74571913,0.16242601,0.63378906,0.37304688,1,-2,-2,-1,0,0,0,0
22.71084201335907,false,-0.70166016,0.64160156,0.36865234,0.74522513,0.16077672,0.64160156,0.36865234,0,0,-1,-2,-1,0,-1,-2
22.738120079040527,false,-0.7055664,0.62841797,0.36572266,0.7450268,0.15820986,0.62841797,0.36572266,-3,-1,-1,0,1,-1,0,-1
22.769137024879456,false,-0.7089844,0.6044922,0.3779297,0.7452056,0.15497395,0.6044922,0.3779297,0,-2,0,0,-1,-1,-1,1
22.77044403553009,false,-0.71777344,0.5810547,0.3935547,0.7455752,0.1513124,0.5810547,0.3935547,0,0,-1,-2,-1,-1,-1,-1
22.798229098320007,false,-0.72558594,0.58984375,0.4086914,0.74595493,0.14771384,0.58984375,0.4086914,-1,1,-2,-2,0,1,-1,-1
22.828302025794983,false,-0.7348633,0.5751953,0.43017578,0.7466139,0.143866,0.5751953,0.43017578,1,-1,0,0,1,-1,-1,-1
22.830344080924988,false,-0.7314453,0.5629883,0.43896484,0.7474777,0.1400834,0.5629883,0.43896484,-2,-1,-3,-2,1,0,0,-1
22.85805606842041,false,-0.7216797,0.5576172,0.4423828,0.74846125,0.1364834,0.5576172,0.4423828,0,-1,-3,-2,-2,-2,0,-1
22.888402104377747,false,-0.71875,0.54833984,0.44726562,0.74954945,0.13312437,0.54833984,0.44726562,-3,-3,0,0,-1,0,-1,2
22.890491008758545,false,-0.73046875,0.54052734,0.4453125,0.75072956,0.13007599,0.54052734,0.4453125,-1,0,0,-2,-1,-2,0,-1
22.91821300983429,false,-0.71972656,0.5336914,0.44726562,0.7520367,0.12750626,0.5336914,0.44726562,-2,-1,-2,0,-1,-1,0,-3
22.94827401638031,false,-0.7128906,0.5258789,0.45117188,0.7534617,0.12525141,0.5258789,0.45117188,1,-1,-1,1,-2,0,-2,0
22.95029306411743,false,-0.70214844,0.53564453,0.45410156,0.7549065,0.12335592,0.53564453,0.45410156,2,-1,0,0,-1,-3,-1,-1
22.978143095970154,false,-0.71728516,0.52197266,0.4658203,0.75656277,0.12140407,0.52197266,0.4658203,-3,-2,-1,-2,-1,-1,0,-1
23.00815200805664,false,-0.7182617,0.51953125,0.45996094,0.7582625,0.11993769,0.51953125,0.45996094,0,-1,-1,-1,-1,-2,-1,0
23.010351061820984,false,-0.73339844,0.5024414,0.4345703,0.75991577,0.1187788,0.5024414,0.4345703,0,-1,1,-1,1,-1,-2,-1
23.03827202320099,false,-0.74609375,0.49072266,0.41259766,0.7615194,0.11731646,0.49072266,0.41259766,0,-1,0,0,-1,-1,0,-1
23.068199038505554,false,-0.7607422,0.484375,0.4140625,0.76317286,0.114875734,0.484375,0.4140625,-1,0,0,-1,-1,-1,-2,-1
23.070691108703613,false,-0.75878906,0.48095703,0.42871094,0.76500106,0.111518145,0.48095703,0.42871094,0,-1,-1,-1,0,0,-1,-2
23.09849202632904,false,-0.75097656,0.47216797,0.4428711,0.7669581,0.10761219,0.47216797,0.4428711,-2,0,-1,-1,-1,1,1,-2
23.128807067871094,false,-0.7441406,0.4584961,0.45166016,0.7690088,0.10370235,0.4584961,0.45166016,-1,-2,-2,-1,-2,-1,-1,-2
23.130410075187683,false,-0.7402344,0.45410156,0.45996094,0.7710488,0.100104496,0.45410156,0.45996094,-1,-1,-2,-1,-1,1,-2,1
23.160423040390015,false,-0.7324219,0.45361328,0.45996094,0.77318716,0.09668654,0.45361328,0.45996094,0,0,0,-2,0,-1,-1,-1
23.187995076179504,false,-0.7270508,0.44726562,0.45947266,0.77544266,0.0934511,0.44726562,0.45947266,-2,-1,-1,1,1,1,0,-1
23.189927101135254,false,-0.74121094,0.45166016,0.46240234,0.7777549,0.090337254,0.45166016,0.46240234,-1,0,-2,3,0,0,-1,-1
23.2191960811615,false,-0.75097656,0.47070312,0.47070312,0.780116,0.0877104,0.47070312,0.47070312,-1,-1,-1,1,-3,-2,0,0
23.24838101863861,false,-0.76464844,0.4790039,0.46728516,0.78237337,0.085329846,0.4790039,0.46728516,0,-1,2,-2,1,1,0,-1
23.250729084014893,false,-0.7709961,0.46533203,0.50390625,0.7846433,0.08362204,0.46533203,0.50390625,0,-1,0,0,-2,-1,-2,-1
23.278374075889587,false,-0.79003906,0.4375,0.5214844,0.78690827,0.083134435,0.4375,0.5214844,-1,0,-2,-2,-1,-2,-1,-3
23.308477997779846,false,-0.77978516,0.42626953,0.5029297,0.78911,0.085210204,0.42626953,0.5029297,0,0,-4,-1,0,-3,0,0
23.310950994491577,false,-0.7885742,0.46289062,0.48291016,0.79099464,0.089726225,0.46289062,0.48291016,-1,-2,0,-4,-2,0,-2,-1
23.338192105293274,false,-0.77197266,0.5078125,0.4658203,0.7925304,0.096563704,0.5078125,0.4658203,0,0,-2,-1,-1,-1,1,-1
23.3683420419693,false,-0.75341797,0.5571289,0.46044922,0.7938669,0.104681045,0.5571289,0.46044922,-1,0,-1,-4,-1,-1,-1,-2
23.37065303325653,false,-0.7553711,0.5996094,0.46923828,0.7952606,0.11328603,0.5996094,0.46923828,2,0,-2,3,-1,0,-2,-1
23.398096084594727,false,-0.7397461,0.6245117,0.46191406,0.79670995,0.12225619,0.6245117,0.46191406,-4,-1,0,0,-1,-1,-1,0
23.42827606201172,false,-0.7109375,0.6323242,0.45166016,0.7983184,0.13111001,0.6323242,0.45166016,-2,0,1,1,-1,0,0,1
23.430339097976685,false,-0.7216797,0.6557617,0.4423828,0.79989445,0.1394093,0.6557617,0.4423828,1,-2,0,2,0,-3,0,-1
23.458057045936584,false,-0.72216797,0.67041016,0.44677734,0.8014802,0.14679459,0.67041016,0.44677734,1,0,-1,0,-3,-1,-1,-1
23.4882470369339,false,-0.7211914,0.6616211,0.4663086,0.8031674,0.15290579,0.6616211,0.4663086,-4,0,-1,-1,-1,-1,-1,1
23.549031019210815,false,-0.72802734,0.6430664,0.4790039,0.80489266,0.15808539,0.6430664,0.4790039,1,0,-3,-2,-1,0,0,-2
23.552003026008606,false,-0.72216797,0.64453125,0.48828125,0.806685,0.16291179,0.64453125,0.48828125,-1,-2,-3,0,-1,0,-1,0
23.608241081237793,false,-0.67871094,0.6123047,0.49560547,0.8120721,0.17640473,0.6123047,0.49560547,0,0,-3,0,0,-1,-2,-1
23.61040210723877,false,-0.69189453,0.60839844,0.5053711,0.81353146,0.18140872,0.60839844,0.5053711,-1,-1,0,1,-1,-2,0,-1
23.612807035446167,false,-0.69091797,0.6220703,0.48535156,0.8146379,0.1865378,0.6220703,0.48535156,-1,0,-1,-2,0,-2,0,0
23.638123035430908,false,-0.6582031,0.61376953,0.47851562,0.8156015,0.19099066,0.61376953,0.47851562,-1,0,0,-1,-1,1,-1,-2
23.668318033218384,false,-0.67041016,0.6455078,0.49414062,0.8166247,0.19355085,0.6455078,0.49414062,-2,-1,-2,-2,0,-1,0,-1
23.670818090438843,false,-0.63427734,0.6142578,0.51464844,0.81792307,0.19447036,0.6142578,0.51464844,1,-2,0,-1,-2,1,-1,-1
23.6981600522995,false,-0.6323242,0.59228516,0.5341797,0.8193838,0.19410314,0.59228516,0.5341797,-1,0,0,1,-1,-2,0,-1
23.728349089622498,false,-0.63427734,0.5571289,0.5361328,0.8211361,0.19257298,0.5571289,0.5361328,-1,-1,-1,-2,-1,1,0,-1
23.730295062065125,false,-0.6166992,0.54296875,0.5595703,0.8229091,0.1909867,0.54296875,0.5595703,0,-1,-1,2,1,-1,-2,-3
23.758328080177307,false,-0.61376953,0.55566406,0.5698242,0.82430494,0.19006927,0.55566406,0.5698242,1,-1,-1,0,0,-2,0,0
23.78859508037567,false,-0.61279297,0.56591797,0.55859375,0.8253958,0.18939608,0.56591797,0.55859375,-1,-3,-1,-2,-2,0,-1,1
23.790717005729675,false,-0.59814453,0.5620117,0.56884766,0.8265559,0.1879313,0.5620117,0.56884766,0,-1,-2,-1,-1,-1,0,-2
23.819051027297974,false,-0.57373047,0.5527344,0.5751953,0.8280333,0.18555368,0.5527344,0.5751953,-1,-1,-1,-2,-1,-3,-1,-1
23.84854304790497,false,-0.5605469,0.5395508,0.57666016,0.82958823,0.18281339,0.5395508,0.57666016,0,0,1,-2,0,0,-2,-2
23.85122311115265,false,-0.55810547,0.5258789,0.578125,0.8308481,0.18048911,0.5258789,0.578125,-1,0,-2,-1,-2,0,-2,-1
23.878363013267517,false,-0.5522461,0.5283203,0.57666016,0.83164537,0.17878085,0.5283203,0.57666016,0,-1,-2,1,1,-3,0,1
23.908576011657715,false,-0.5449219,0.5385742,0.58691406,0.83215696,0.17774819,0.5385742,0.58691406,-2,0,3,-1,0,-1,-1,0
23.911118030548096,false,-0.55908203,0.54345703,0.5888672,0.83237016,0.17688705,0.54345703,0.5888672,0,-1,-1,1,-2,1,0,1
23.93869400024414,false,-0.5625,0.5493164,0.57714844,0.8321793,0.176214,0.5493164,0.57714844,-1,-2,-2,-2,0,0,-2,-2
23.968488097190857,false,-0.55859375,0.5576172,0.5908203,0.8316376,0.17566627,0.5576172,0.5908203,-2,-1,-2,-2,1,0,0,0
23.970826029777527,false,-0.5703125,0.5673828,0.60791016,0.8306734,0.1756689,0.5673828,0.60791016,-2,-1,-3,-2,0,1,0,-1
23.998118996620178,false,-0.57910156,0.5913086,0.60839844,0.8295119,0.17615682,0.5913086,0.60839844,0,-2,-3,-1,-2,-2,-1,-1
24.028154015541077,false,-0.60546875,0.5839844,0.5942383,0.82828724,0.17658328,0.5839844,0.5942383,-2,-1,-2,-3,-2,-1,-1,-1
24.030132055282593,false,-0.6044922,0.5698242,0.59277344,0.827016,0.17682968,0.5698242,0.59277344,-1,3,7,0,0,-1,-2,-1
24.058070063591003,false,-0.59521484,0.5683594,0.5986328,0.8257182,0.1773756,0.5683594,0.5986328,1,-2,-5,0,-1,-1,1,2
24.0882830619812,false,-0.61035156,0.59228516,0.6088867,0.8242091,0.17896624,0.59228516,0.6088867,-1,-3,-4,-3,0,0,1,-1
24.09033203125,false,-0.6191406,0.5913086,0.6118164,0.8230575,0.18012775,0.5913086,0.6118164,-2,-2,0,0,12,-3,-2,-2
24.11832904815674,false,-0.6274414,0.5810547,0.609375,0.82223636,0.18115935,0.5810547,0.609375,-1,-4,-6,-1,-5,-1,0,1
24.148353099822998,false,-0.625,0.5991211,0.62890625,0.82141215,0.18275307,0.5991211,0.62890625,-2,3,12,0,-3,0,-2,-1
24.150857090950012,false,-0.609375,0.5810547,0.64208984,0.8209065,0.18403102,0.5810547,0.64208984,1,-2,-5,-2,0,0,-1,0
24.178627014160156,false,-0.5751953,0.5727539,0.65283203,0.82071286,0.18543252,0.5727539,0.65283203,0,-1,-6,0,-4,-1,-1,-1
24.237563014030457,false,-0.546875,0.58935547,0.6616211,0.8206625,0.1874492,0.58935547,0.6616211,-2,-4,-13,0,-3,0,-2,-3
24.269015073776245,false,-0.52783203,0.6113281,0.6503906,0.8209785,0.18885559,0.6113281,0.6503906,-1,-3,-9,-2,-14,-1,0,1
24.299116015434265,false,-0.43017578,0.59814453,0.68652344,0.8267479,0.19092414,0.59814453,0.68652344,5,0,-13,-2,6,-1,-1,1
24.328574061393738,false,-0.40722656,0.5551758,0.67041016,0.8287071,0.19232939,0.5551758,0.67041016,-4,-3,6,4,-1,-2,-1,-2
24.331436038017273,false,-0.37841797,0.5683594,0.6748047,0.83108824,0.1938555,0.5683594,0.6748047,5,-4,-17,-3,0,3,1,2
24.358835101127625,false,-0.39208984,0.6088867,0.68847656,0.8335249,0.19647896,0.6088867,0.68847656,-2,-4,-10,-8,-4,-1,-1,-1
24.388254046440125,false,-0.38085938,0.6484375,0.70166016,0.83606523,0.19935672,0.6484375,0.70166016,-3,13,15,8,11,3,-2,1
24.390611052513123,false,-0.35742188,0.6152344,0.6748047,0.83922195,0.20142792,0.6152344,0.6748047,-3,-4,-9,-9,-1,-3,-7,-5
24.418827056884766,false,-0.34326172,0.6279297,0.703125,0.84264636,0.2034437,0.6279297,0.703125,-2,-1,10,3,2,-2,2,0
24.448228001594543,false,-0.3720703,0.60839844,0.7026367,0.84584767,0.20557187,0.60839844,0.7026367,-3,-11,-2,-11,-6,-1,-1,-1
24.450789093971252,false,-0.36328125,0.60546875,0.67626953,0.8489727,0.20771113,0.60546875,0.67626953,-2,0,5,-11,-5,-4,0,-1
24.479011058807373,false,-0.4008789,0.66845703,0.71240234,0.8517339,0.21046141,0.66845703,0.71240234,-1,-3,-5,7,2,-1,-1,-1
24.508090019226074,false,-0.40771484,0.6508789,0.71191406,0.8543244,0.21284862,0.6508789,0.71191406,-3,-2,5,1,-1,0,1,-3
24.53794503211975,false,-0.3857422,0.61279297,0.71972656,0.8571176,0.21467616,0.61279297,0.71972656,1,1,-1,3,0,2,-1,1
24.539671063423157,false,-0.3930664,0.58496094,0.7128906,0.8594637,0.21765837,0.58496094,0.7128906,2,3,1,2,3,-1,0,1
24.56830108165741,false,-0.39208984,0.58984375,0.6870117,0.8612064,0.22212277,0.58984375,0.6870117,-2,4,6,1,-1,-1,-1,0
24.598257064819336,false,-0.390625,0.6020508,0.6489258,0.8626221,0.2272371,0.6020508,0.6489258,-1,-1,-2,-2,-1,-3,1,0
24.600102066993713,false,-0.3930664,0.65625,0.6557617,0.86381805,0.2323739,0.65625,0.6557617,1,-2,-4,2,-1,-1,0,-2
24.628597021102905,false,-0.39648438,0.65722656,0.64404297,0.8648526,0.23725612,0.65722656,0.64404297,-1,-3,-4,4,-1,2,-1,-1
24.658167004585266,false,-0.3725586,0.62841797,0.64208984,0.86621106,0.241289,0.62841797,0.64208984,-1,-3,-8,0,-5,-4,-3,-2
24.660226106643677,false,-0.3540039,0.60009766,0.61621094,0.8675744,0.24567236,0.60009766,0.61621094,-2,-1,-2,-1,2,1,0,0
24.688614010810852,false,-0.34716797,0.59228516,0.5854492,0.8686427,0.25105244,0.59228516,0.5854492,-1,1,2,0,-4,-3,-2,-1
24.71849501132965,false,-0.34472656,0.5805664,0.5703125,0.8692446,0.2571538,0.5805664,0.5703125,1,-2,-4,1,-1,2,0,-1
24.720105051994324,false,-0.3486328,0.59277344,0.5751953,0.8694682,0.26386178,0.59277344,0.5751953,0,-1,4,-11,0,1,-1,-1
24.748622059822083,false,-0.3540039,0.61083984,0.5830078,0.8692714,0.27120095,0.61083984,0.5830078,-1,-1,-5,5,-2,-1,0,1
24.778040051460266,false,-0.37695312,0.6489258,0.60498047,0.8689445,0.27851883,0.6489258,0.60498047,-3,-3,9,7,1,2,-1,-1
24.809643030166626,false,-0.40625,0.6689453,0.6123047,0.8683121,0.28632447,0.6689453,0.6123047,1,-1,-14,-8,2,-1,1,-1
24.81238305568695,false,-0.39208984,0.60253906,0.5415039,0.8680475,0.2928081,0.60253906,0.5415039,1,4,1,-2,-3,1,0,0
24.839015007019043,false,-0.3725586,0.61279297,0.5385742,0.86777645,0.29878074,0.61279297,0.5385742,-2,-1,1,6,14,1,-2,-2
24.8398540019989,false,-0.40722656,0.6459961,0.51953125,0.8660689,0.3065331,0.6459961,0.51953125,1,1,4,12,0,-2,0,2
24.869007110595703,false,-0.41503906,0.6894531,0.5161133,0.86314857,0.31557018,0.6894531,0.5161133,0,-1,2,-8,-4,-3,-2,-1
24.89838409423828,false,-0.40039062,0.70410156,0.5126953,0.85989887,0.32404906,0.70410156,0.5126953,-1,-2,-1,-4,0,-1,-1,-2
24.900556087493896,false,-0.3720703,0.66308594,0.47753906,0.85683984,0.3315539,0.66308594,0.47753906,-3,-8,-15,-12,8,-1,-4,-5
24.928678035736084,false,-0.35498047,0.6538086,0.45507812,0.8535585,0.338579,0.6538086,0.45507812,-5,0,4,-6,-2,-7,-5,-1
24.95825707912445,false,-0.3774414,0.7001953,0.46777344,0.84923196,0.3463338,0.7001953,0.46777344,0,2,12,0,-12,0,1,-3
24.960562109947205,false,-0.3984375,0.71777344,0.4741211,0.84453475,0.3537817,0.71777344,0.4741211,26,7,14,-2,12,1,2,13
24.988798022270203,false,-0.38134766,0.7055664,0.4794922,0.84049976,0.3594556,0.7055664,0.4794922,1,-3,-11,7,-20,-3,-3,6
25.018537998199463,false,-0.38183594,0.6816406,0.47460938,0.8372583,0.36342025,0.6816406,0.47460938,7,0,8,-4,-7,0,3,7
25.020008087158203,false,-0.4189453,0.6875,0.48876953,0.83413917,0.36707982,0.6875,0.48876953,-23,-5,-10,-2,19,-2,2,18
25.048550009727478,false,-0.45654297,0.73339844,0.47705078,0.83066666,0.3711723,0.73339844,0.47705078,-22,-11,-27,-1,5,-6,-10,-61
25.077978014945984,false,-0.50146484,0.7470703,0.4970703,0.82762223,0.3741055,0.7470703,0.4970703,10,-4,5,3,3,1,4,9
25.079650044441223,false,-0.5488281,0.7583008,0.5336914,0.8257282,0.37514234,0.7583008,0.5336914,3,9,8,21,16,2,-1,-8
25.108334064483643,false,-0.5683594,0.76464844,0.52490234,0.82475126,0.37495908,0.76464844,0.52490234,13,2,3,0,-2,3,-4,-3
25.137989044189453,false,-0.56884766,0.7524414,0.50683594,0.8244168,0.3738471,0.7524414,0.50683594,0,-4,4,-7,9,12,3,-7
25.139639019966125,false,-0.59277344,0.72998047,0.4868164,0.8238596,0.37228417,0.72998047,0.4868164,6,-3,-4,9,-7,-7,-3,1
25.168567061424255,false,-0.61376953,0.7182617,0.484375,0.82298213,0.37068683,0.7182617,0.484375,-23,-5,-2,-8,-6,1,-4,-12
25.198294043540955,false,-0.63378906,0.71484375,0.484375,0.8220069,0.36922252,0.71484375,0.484375,-11,1,11,-10,-22,-1,-1,-1
25.200311064720154,false,-0.6582031,0.67871094,0.46289062,0.8212817,0.3669063,0.67871094,0.46289062,-17,3,2,-8,-1,-3,-3,-2
25.22816801071167,false,-0.6538086,0.64697266,0.42333984,0.82025194,0.36489552,0.64697266,0.42333984,15,7,1,-2,-4,11,4,11
25.25814700126648,false,-0.62060547,0.6298828,0.38427734,0.81846285,0.36366633,0.6298828,0.38427734,-5,-6,-21,1,9,-5,-4,-4
25.260353088378906,false,-0.6376953,0.6791992,0.375,0.81628484,0.36336973,0.6791992,0.375,91,2,15,-1,-11,-8,-2,2
25.288395047187805,false,-0.64501953,0.73291016,0.33203125,0.81382793,0.36379018,0.73291016,0.33203125,-28,1,-3,7,9,-1,0,5
25.319064021110535,false,-0.6386719,0.7182617,0.31152344,0.812009,0.3632463,0.7182617,0.31152344,-49,-4,-10,-8,-8,-1,4,5
25.32086205482483,false,-0.64501953,0.7006836,0.33447266,0.8106199,0.36224902,0.7006836,0.33447266,-24,0,3,-12,-28,5,3,12
25.34846305847168,false,-0.67333984,0.6972656,0.29882812,0.80906785,0.3620205,0.6972656,0.29882812,1,-8,-5,-22,-31,-7,-6,8
25.378911018371582,false,-0.66845703,0.7167969,0.25634766,0.8065058,0.36373025,0.7167969,0.25634766,-8,5,-1,-3,22,4,1,5
25.381424069404602,false,-0.66308594,0.70947266,0.22021484,0.8037645,0.36501455,0.70947266,0.22021484,-3,-2,1,2,10,0,2,-1
25.40849804878235,false,-0.6855469,0.6645508,0.25195312,0.8013756,0.36476663,0.6645508,0.25195312,22,-1,4,8,-4,-1,1,-6
25.4389671087265,false,-0.72216797,0.6582031,0.30908203,0.7994457,0.3636785,0.6582031,0.30908203,-66,-5,-2,-2,-38,-23,-2,-1
25.44093108177185,false,-0.77001953,0.7368164,0.3125,0.7976226,0.36322713,0.7368164,0.3125,17,2,-2,13,41,6,1,-5
25.468335032463074,false,-0.7788086,0.6791992,0.3022461,0.79603815,0.36206856,0.6791992,0.3022461,32,3,6,8,-8,4,-2,1
25.498176097869873,false,-0.7470703,0.5761719,0.2763672,0.7950226,0.35988125,0.5761719,0.2763672,-1,3,-3,6,11,-10,-19,-18
25.500461101531982,false,-0.7392578,0.6123047,0.27294922,0.7930676,0.36000252,0.6123047,0.27294922,5,-1,-6,-1,6,6,7,2
25.52812099456787,false,-0.7348633,0.6171875,0.25146484,0.79050833,0.3609811,0.6171875,0.25146484,3,-1,-7,-2,20,-3,-5,-10
25.558256030082703,false,-0.7314453,0.67871094,0.2529297,0.78789043,0.36232707,0.67871094,0.2529297,8,-2,-5,-7,-6,4,-1,-12
25.56039309501648,false,-0.70410156,0.6689453,0.25585938,0.7863024,0.36238763,0.6689453,0.25585938,-5,-4,7,-14,-11,12,7,1
25.588261008262634,false,-0.6772461,0.57714844,0.27978516,0.78532577,0.3612279,0.57714844,0.27978516,-10,-11,-3,-11,-16,-10,-1,29
25.618486046791077,false,-0.7182617,0.6147461,0.28515625,0.7841524,0.3612216,0.6147461,0.28515625,-18,-5,-1,-4,7,16,3,-5
25.62066102027893,false,-0.6748047,0.62597656,0.23339844,0.782764,0.36171705,0.62597656,0.23339844,2,3,4,17,9,-13,-7,0
25.648245096206665,false,-0.6557617,0.57128906,0.21142578,0.78134215,0.36115938,0.57128906,0.21142578,-12,6,3,10,12,0,-3,0
25.678216099739075,false,-0.66552734,0.5678711,0.2163086,0.77918607,0.36121127,0.5678711,0.2163086,4,12,-5,7,0,0,0,1
25.680297017097473,false,-0.6904297,0.5732422,0.21826172,0.77621037,0.36201176,0.5732422,0.21826172,8,-4,20,-6,-7,-1,1,9
25.708508014678955,false,-0.70214844,0.5864258,0.1953125,0.7724653,0.363312,0.5864258,0.1953125,6,-14,-9,-3,1,3,7,24
25.738638997077942,false,-0.73779297,0.6879883,0.21240234,0.76842153,0.36580744,0.6879883,0.21240234,-2,-1,-24,-1,0,10,4,-9
25.741177082061768,false,-0.7783203,0.67822266,0.17871094,0.7649514,0.3674599,0.67822266,0.17871094,7,-8,-11,-3,4,-1,-2,-12
25.768290042877197,false,-0.7734375,0.6875,0.12939453,0.7616837,0.368787,0.6875,0.12939453,-2,3,2,6,9,-12,-8,8
25.798251032829285,false,-0.83251953,0.72265625,0.104003906,0.7577504,0.37057376,0.72265625,0.104003906,-9,1,8,2,-10,-7,-1,-11
25.8004230260849,false,-0.8671875,0.74560547,0.080566406,0.7534546,0.3709897,0.74560547,0.080566406,4,3,-14,-3,11,-19,-3,1
25.82863199710846,false,-0.76123047,0.67089844,0.07763672,0.75168395,0.36726615,0.67089844,0.07763672,1,11,2,-2,3,-11,2,22
25.888056993484497,false,-0.7675781,0.5527344,0.17089844,0.7495044,0.36342937,0.5527344,0.17089844,5,-2,-3,3,2,-3,-12,-24
25.89002501964569,false,-0.8208008,0.5053711,0.19824219,0.7466024,0.36078864,0.5053711,0.19824219,30,2,11,4,4,18,6,-13
25.91826105117798,false,-0.75878906,0.58447266,0.1303711,0.7391099,0.35786614,0.58447266,0.1303711,2,-6,-26,7,-1,3,4,2
25.921083092689514,false,-0.81689453,0.63183594,0.079589844,0.73468125,0.35726896,0.63183594,0.079589844,2,-10,12,9,7,-2,-2,-4
25.948541045188904,false,-0.85546875,0.59277344,0.057617188,0.73203,0.35414308,0.59277344,0.057617188,-19,-4,14,-14,-10,-3,11,10
25.97857105731964,false,-0.81640625,0.5756836,0.030761719,0.72994655,0.3507821,0.5756836,0.030761719,2,7,-9,-4,-9,-17,-3,-1
25.98129904270172,false,-0.8388672,0.51123047,0.014160156,0.72659653,0.34846604,0.51123047,0.014160156,-7,1,-7,-21,-11,11,11,7
26.00857901573181,false,-0.82958984,0.5913086,0.03173828,0.7226982,0.3479206,0.5913086,0.03173828,12,1,1,-12,1,11,5,-13
26.038655042648315,false,-0.81347656,0.6118164,0.051757812,0.71944803,0.3469367,0.6118164,0.051757812,-12,16,-16,12,-4,2,-4,7
26.041463017463684,false,-0.81152344,0.57421875,0.068847656,0.717394,0.3442002,0.57421875,0.068847656,7,-14,-8,-5,10,16,2,-4
26.06849503517151,false,-0.81152344,0.56640625,0.08886719,0.71617293,0.34090394,0.56640625,0.08886719,-15,-10,19,8,1,-7,-4,2
26.09821307659149,false,-0.8173828,0.5126953,0.053710938,0.7147769,0.33797777,0.5126953,0.053710938,8,-12,1,-10,-12,20,4,4
26.100388050079346,false,-0.84228516,0.5048828,0.045410156,0.7124281,0.33613274,0.5048828,0.045410156,2,3,32,12,-3,-6,-9,-10
26.12816309928894,false,-0.85302734,0.5439453,0.0078125,0.71007293,0.3348629,0.5439453,0.0078125,0,-6,19,-2,5,-18,2,0
26.16061508655548,false,-0.8388672,0.546875,0.021972656,0.7080085,0.3334031,0.546875,0.021972656,-2,0,-18,-7,-8,-4,2,9
26.162421107292175,false,-0.8808594,0.54003906,0.0126953125,0.7063756,0.33173347,0.54003906,0.0126953125,2,-15,-36,-17,8,-19,-2,11
26.18774402141571,false,-0.8808594,0.4970703,-0.009765625,0.7050384,0.3297219,0.4970703,-0.009765625,9,4,12,2,7,18,0,0
26.21831703186035,false,-0.82714844,0.5029297,-0.06347656,0.70365185,0.3283261,0.5029297,-0.06347656,9,8,16,25,-4,1,-9,-4
26.221193075180054,false,-0.8120117,0.52441406,-0.09423828,0.70091957,0.32876015,0.52441406,-0.09423828,-5,17,-4,-9,8,-5,-6,-5
26.248122096061707,false,-0.8183594,0.60839844,-0.05810547,0.69829696,0.330043,0.60839844,-0.05810547,-5,-4,-3,1,5,9,0,-7
26.27820909023285,false,-0.83935547,0.55908203,-0.011230469,0.69737345,0.3294899,0.55908203,-0.011230469,4,3,6,17,8,-10,-12,-19
26.28039300441742,false,-0.828125,0.5605469,0.009277344,0.6977916,0.3287531,0.5605469,0.009277344,0,4,-39,-15,-12,8,8,5
26.308131098747253,false,-0.8901367,0.52685547,-0.017578125,0.6985304,0.32796258,0.52685547,-0.017578125,-12,-7,4,-17,-17,6,-2,-9
26.3386070728302,false,-0.8847656,0.51171875,-0.07763672,0.6998462,0.32666814,0.51171875,-0.07763672,-1,4,10,5,-3,-6,-8,-2
26.34079909324646,false,-0.88671875,0.54541016,-0.07519531,0.69982755,0.32681,0.54541016,-0.07519531,2,2,63,7,-13,-9,-1,-5
26.36929500102997,false,-0.859375,0.58496094,-0.05908203,0.69948417,0.32709736,0.58496094,-0.05908203,6,-16,-21,-13,-8,-3,5,-5
26.39849102497101,false,-0.8383789,0.51123047,0.07470703,0.7009131,0.3241181,0.51123047,0.07470703,3,3,24,6,-11,3,6,2
26.40122103691101,false,-0.9355469,0.47851562,0.026367188,0.70421463,0.3189933,0.47851562,0.026367188,4,-6,-37,-13,3,19,7,8
26.428514003753662,false,-0.84033203,0.5522461,-0.04345703,0.7066934,0.31483197,0.5522461,-0.04345703,-17,21,-4,-9,6,5,6,11
26.458546042442322,false,-0.86279297,0.47509766,-0.030761719,0.7074719,0.31189555,0.47509766,-0.030761719,15,5,1,3,-4,-12,3,4
26.46077311038971,false,-0.8798828,0.50097656,-0.013183594,0.70896924,0.30830854,0.50097656,-0.013183594,-13,14,-12,7,0,-9,-1,-5
26.488696098327637,false,-0.99072266,0.50097656,0.00390625,0.71036613,0.30348343,0.50097656,0.00390625,-7,6,14,16,1,-21,-13,-14
26.51903200149536,false,-0.9345703,0.5024414,0.018554688,0.7125482,0.2973732,0.5024414,0.018554688,0,43,2,-21,-2,-13,-6,24
26.522298097610474,false,-0.84277344,0.51416016,0.0073242188,0.713976,0.2903637,0.51416016,0.0073242188,-6,-12,20,32,-2,-18,1,20
26.548871994018555,false,-0.8330078,0.4970703,0.09082031,0.71415347,0.28383023,0.4970703,0.09082031,-34,-33,-52,-24,0,44,10,-3
26.57851505279541,false,-0.83935547,0.41259766,0.1665039,0.71469074,0.2761957,0.41259766,0.1665039,-46,-1,-52,-48,7,-37,-21,-25
26.58094310760498,false,-0.84814453,0.40673828,0.11425781,0.7171473,0.26674044,0.40673828,0.11425781,44,33,13,7,-7,40,6,1
26.608521103858948,false,-0.85058594,0.46289062,-0.07714844,0.71774554,0.25843477,0.46289062,-0.07714844,15,-31,60,-2,52,11,15,-7
26.63860809803009,false,-0.89746094,0.5019531,-0.068847656,0.7149411,0.25330877,0.5019531,-0.068847656,-27,-27,-33,-8,-12,24,-2,-56
26.64175510406494,false,-1.0439453,0.2788086,0.0034179688,0.71235454,0.24518278,0.2788086,0.0034179688,-25,-10,-28,-26,3,-12,8,56
26.668139100074768,false,-1.0424805,0.15820312,0.022460938,0.7121892,0.2348735,0.15820312,0.022460938,16,-20,0,-2,2,-6,58,-18
26.6985080242157,false,-0.9741211,0.234375,-0.033203125,0.7122344,0.22693352,0.234375,-0.033203125,30,14,42,19,-4,-8,-31,36
26.700369000434875,false,-1.0097656,0.34277344,-0.10986328,0.71038914,0.22145487,0.34277344,-0.10986328,3,-2,-70,-13,-5,-6,-24,-2
26.728145003318787,false,-0.8720703,0.35546875,-0.06298828,0.707237,0.21765834,0.35546875,-0.06298828,-45,-1,16,-19,2,4,39,27
26.758499026298523,false,-0.9453125,0.31298828,0.059570312,0.70558155,0.2122238,0.31298828,0.059570312,40,-34,-11,18,-1,-8,-29,-2
26.760664105415344,false,-1.0478516,0.18896484,0.10205078,0.7072329,0.20178752,0.18896484,0.10205078,-27,25,73,51,-2,-6,-3,15
26.788262009620667,false,-0.9550781,0.19238281,-0.040039062,0.70853597,0.19221053,0.19238281,-0.040039062,-12,12,-34,-22,1,31,-2,-37
26.818191051483154,false,-0.8588867,0.33740234,-0.033203125,0.706398,0.19056205,0.33740234,-0.033203125,25,30,13,3,-5,-7,-17,8
26.821417093276978,false,-0.9003906,0.3623047,0.024414062,0.70522594,0.18903278,0.3623047,0.024414062,9,13,-27,-8,1,-11,-25,-21
26.848374009132385,false,-0.9350586,0.35205078,0.04296875,0.70700216,0.18409035,0.35205078,0.04296875,-3,-14,-25,38,1,-39,-33,-48
26.8783620595932,false,-1.0092773,0.24658203,0.045410156,0.7093936,0.17884386,0.24658203,0.045410156,19,-23,-1,-33,0,-8,8,-19
26.88038206100464,false,-0.98828125,0.21679688,0.036621094,0.7109728,0.1753627,0.21679688,0.036621094,-5,57,47,21,-7,38,1,22
26.90816903114319,false,-0.9863281,0.30322266,-0.032226562,0.7116818,0.17279342,0.30322266,-0.032226562,5,-54,-35,-40,0,23,7,13
26.93830907344818,false,-1.0205078,0.20410156,0.020019531,0.71159077,0.16791785,0.20410156,0.020019531,45,15,24,32,-1,-4,24,23
26.940453052520752,false,-1.0400391,0.24951172,0.080078125,0.7129756,0.16095512,0.24951172,0.080078125,9,-43,-54,-47,-3,-56,-27,-32
26.9685240983963,false,-1.0166016,0.17675781,-0.028320312,0.7135925,0.15381518,0.17675781,-0.028320312,3,13,-2,-14,0,8,4,1
26.99816107749939,false,-0.99365234,0.24707031,-0.04345703,0.7128556,0.14984678,0.24707031,-0.04345703,-14,21,47,-3,-3,4,8,29
27.000359058380127,false,-0.92089844,0.27001953,-0.15625,0.71164,0.14563626,0.27001953,-0.15625,-18,-14,8,33,1,-3,-7,-6
27.02847707271576,false,-0.8857422,0.1796875,0.068847656,0.70962465,0.14258415,0.1796875,0.068847656,35,4,1,36,-1,-7,19,28
27.05855405330658,false,-0.9667969,0.12548828,0.03173828,0.71141243,0.13361491,0.12548828,0.03173828,-22,-36,-8,-42,1,16,-10,-34
27.06164801120758,false,-0.8540039,0.15820312,0.014160156,0.7123093,0.12787387,0.15820312,0.014160156,-26,26,64,108,-3,4,7,-9
27.0887610912323,false,-0.8964844,0.23730469,0.060058594,0.7134668,0.12518781,0.23730469,0.060058594,-2,-29,-12,-5,-1,-38,3,22
27.11890208721161,false,-1.078125,0.26464844,-0.0009765625,0.71486384,0.12195167,0.26464844,-0.0009765625,-20,0,-18,-16,-2,-2,-10,-6
27.1212340593338,false,-1.0961914,0.14892578,0.030273438,0.7157301,0.11591092,0.14892578,0.030273438,-3,-1,-21,-32,12,8,-11,3
27.14853310585022,false,-1.1328125,0.0068359375,-0.036132812,0.7170044,0.10657102,0.0068359375,-0.036132812,-1,73,38,10,3,20,3,-22
27.17807102203369,false,-1.0009766,0.17041016,-0.06933594,0.71658134,0.10065099,0.17041016,-0.06933594,16,-19,59,36,3,-26,-1,-5
27.17997908592224,false,-0.91845703,0.50927734,-0.0053710938,0.7159305,0.10047077,0.50927734,-0.0053710938,1,-50,-43,18,-4,20,6,-34
27.208420038223267,false,-0.84765625,0.2866211,0.045898438,0.71694875,0.096866824,0.2866211,0.045898438,-17,-45,-37,-37,-2,-12,4,-27
27.23867702484131,false,-0.98828125,-0.03564453,0.122558594,0.7191146,0.09003429,-0.03564453,0.122558594,-31,3,67,48,-2,-32,-3,2
27.241350054740906,false,-1.0078125,-0.13085938,0.115722656,0.721645,0.08221736,-0.13085938,0.115722656,42,16,-5,-28,-3,-17,-19,21
27.268205046653748,false,-1.1391602,-0.01953125,0.03955078,0.7232365,0.07440504,-0.01953125,0.03955078,-25,-1,5,-40,0,41,8,16
27.298278093338013,false,-1.0507812,0.071777344,-0.14453125,0.7226289,0.068362564,0.071777344,-0.14453125,-7,94,6,18,4,12,8,-1
27.300429105758667,false,-0.9321289,0.25439453,-0.080078125,0.7212604,0.06555249,0.25439453,-0.080078125,9,-13,-32,28,9,21,13,17
27.328150033950806,false,-0.8989258,0.080078125,-0.03173828,0.72130394,0.060673278,0.080078125,-0.03173828,17,-13,6,34,-4,-52,-19,-8
27.35824203491211,false,-0.92822266,0.07861328,0.09716797,0.72298634,0.05365175,0.07861328,0.09716797,-7,33,33,8,-10,3,26,-5
27.360575079917908,false,-1.0214844,0.0073242188,0.103515625,0.725048,0.04620434,0.0073242188,0.103515625,22,8,37,3,-2,1,19,-32
27.38862109184265,false,-1.0229492,-0.171875,0.13476562,0.7267618,0.0396127,-0.171875,0.13476562,-17,-28,-92,-78,-2,21,6,10
27.418256044387817,false,-0.9501953,0.072753906,0.14355469,0.7282911,0.038514223,0.072753906,0.14355469,-12,-16,-37,-57,-1,8,-8,10
27.42092800140381,false,-0.91845703,0.25830078,0.06982422,0.7288039,0.03888175,0.25830078,0.06982422,-13,-15,66,64,0,-8,-25,1
27.44855809211731,false,-1.0209961,0.040527344,0.045898438,0.7289924,0.035891112,0.040527344,0.045898438,21,-23,-37,-2,1,-30,-26,3
27.47855305671692,false,-0.9082031,-0.083496094,0.115722656,0.72930175,0.034670524,-0.083496094,0.115722656,36,-18,-65,-51,-1,0,2,19
27.480841994285583,false,-0.9536133,-0.032226562,0.095703125,0.73023313,0.030517934,-0.032226562,0.095703125,59,26,76,23,1,-22,-12,-17
27.508448004722595,false,-1.0708008,-0.0146484375,0.083496094,0.7305116,0.028199896,-0.0146484375,0.083496094,-6,-4,-38,-41,2,35,34,-2
27.538613080978394,false,-1.03125,0.019042969,0.075683594,0.72988117,0.028809493,0.019042969,0.075683594,-31,-22,-31,0,-3,-27,-9,-12
27.541126012802124,false,-0.9291992,0.17773438,0.052734375,0.7287228,0.030457549,0.17773438,0.052734375,-6,12,48,-3,-1,9,0,-9
27.56839406490326,false,-0.90771484,0.103515625,0.123046875,0.72824794,0.030274997,0.103515625,0.123046875,7,-7,41,-1,-4,48,4,-15
27.598578095436096,false,-1.0224609,-0.04736328,0.072265625,0.7277195,0.028994026,-0.04736328,0.072265625,-23,-19,-38,10,-1,34,6,-1
27.60048508644104,false,-1.2021484,-0.07080078,-0.0048828125,0.72637236,0.027223704,-0.07080078,-0.0048828125,-1,21,7,37,-1,-18,-7,14
27.628425002098083,false,-1.0722656,-0.05908203,-0.08935547,0.7243937,0.02722275,-0.05908203,-0.08935547,-23,-1,-27,-11,3,-28,-12,-11
27.65853500366211,false,-0.94140625,0.30126953,-0.11425781,0.7209188,0.036073405,0.30126953,-0.11425781,11,-8,-31,-35,-4,9,1,-2
27.68888509273529,false,-0.9375,0.42871094,-0.028320312,0.7178052,0.042848576,0.42871094,-0.028320312,-8,-14,-36,-8,2,-22,-34,27
27.69095003604889,false,-1.0507812,0.05859375,0.1586914,0.7156311,0.043521408,0.05859375,0.1586914,-26,-41,-45,-32,-2,-19,-11,-3
27.71844208240509,false,-1.0576172,-0.04296875,0.059570312,0.7158047,0.039675366,-0.04296875,0.059570312,-32,-4,-4,12,-4,12,34,18
27.72108805179596,false,-0.7519531,0.14257812,0.075683594,0.7149294,0.046327278,0.14257812,0.075683594,45,10,-14,9,0,-11,-1,25
27.748147010803223,false,-0.7602539,0.123535156,0.107421875,0.7137839,0.05517878,0.123535156,0.107421875,4,18,9,8,1,15,15,8
27.778255105018616,false,-1.0556641,0.13867188,-0.001953125,0.71402806,0.05835278,0.13867188,-0.001953125,-18,8,40,22,1,7,-8,-16
27.780194997787476,false,-0.9902344,0.32958984,0.0043945312,0.7141379,0.065554194,0.32958984,0.0043945312,28,-17,3,-13,-5,14,-19,-18
27.808269023895264,false,-1.0214844,0.071777344,0.115234375,0.713244,0.07385753,0.071777344,0.115234375,-12,-10,9,-40,0,-36,5,9
27.838648080825806,false,-1.0917969,0.26416016,-0.11816406,0.7129249,0.076785915,0.26416016,-0.11816406,29,35,65,49,-2,14,4,7
27.840858101844788,false,-0.9868164,0.28808594,0.09667969,0.710717,0.08728318,0.28808594,0.09667969,16,-14,-57,-21,-1,60,32,13
27.868176102638245,false,-0.9291992,0.21728516,0.038085938,0.70998335,0.09637756,0.21728516,0.038085938,2,12,39,2,6,-44,-31,-6
27.898219108581543,false,-0.7524414,0.4350586,0.04736328,0.71028125,0.10467753,0.4350586,0.04736328,27,-2,0,33,2,-4,17,5
27.900827050209045,false,-1.0532227,0.28759766,0.15283203,0.710245,0.10962531,0.28759766,0.15283203,-30,-24,-32,-22,-3,-27,-9,9
27.928858995437622,false,-1.0600586,0.13964844,0.08251953,0.71141416,0.111946255,0.13964844,0.08251953,-11,9,32,5,0,26,-1,-32
27.958283066749573,false,-0.9760742,0.65527344,0.011230469,0.7118143,0.12311177,0.65527344,0.011230469,-30,10,38,34,-1,15,11,33
27.960658073425293,false,-0.6254883,0.28222656,-0.0014648438,0.71181285,0.13104632,0.28222656,-0.0014648438,20,0,7,18,-5,28,20,14
27.988851070404053,false,-0.5541992,0.24414062,0.2919922,0.7135951,0.13898349,0.24414062,0.2919922,-53,10,-27,3,-1,-29,-18,-1
28.01828110218048,false,-0.52490234,0.6425781,0.15917969,0.71876585,0.14844078,0.6425781,0.15917969,0,8,5,-17,0,-1,-5,-21
28.021213054656982,false,-0.77246094,0.52734375,0.103027344,0.72403353,0.15485358,0.52734375,0.103027344,-17,-34,-5,-36,-2,-2,4,-10
28.04915201663971,false,-1.0595703,0.6430664,-0.064941406,0.72617334,0.16523084,0.6430664,-0.064941406,17,-9,-7,15,-3,3,3,16
28.078574061393738,false,-1.0664062,0.5595703,0.052734375,0.7272665,0.17707093,0.5595703,0.052734375,-11,21,4,36,0,-26,-15,-54
28.080251097679138,false,-1.1791992,0.5498047,0.18066406,0.72946984,0.18451907,0.5498047,0.18066406,58,-7,0,20,-2,-15,-6,-20
28.138253092765808,false,-1.1420898,0.74560547,0.21484375,0.7324579,0.1900728,0.74560547,0.21484375,-10,-5,1,9,1,-55,2,-19
28.141005992889404,false,-0.95214844,0.7050781,0.24121094,0.73491603,0.1922135,0.7050781,0.24121094,-10,-5,-2,-18,1,36,1,4
28.168429017066956,false,-0.5961914,0.50341797,0.2705078,0.73985404,0.19624047,0.50341797,0.2705078,-34,-22,-28,-11,0,-36,-11,20
28.171723008155823,false,-0.63134766,0.69140625,0.28564453,0.7395375,0.20551525,0.69140625,0.28564453,-2,6,1,-15,-3,9,4,30
28.198989033699036,false,-0.68115234,0.8598633,0.25585938,0.7389965,0.21400197,0.8598633,0.25585938,-14,-2,1,11,1,-2,-15,-47
28.228249073028564,false,-0.6323242,0.84277344,0.25341797,0.7386752,0.21839198,0.84277344,0.25341797,5,11,21,15,1,12,9,8
28.230921030044556,false,-0.5966797,0.6748047,0.3076172,0.738892,0.21962276,0.6748047,0.3076172,-27,-7,-17,-18,1,-5,-6,4
28.258886098861694,false,-0.625,0.57910156,0.33789062,0.7401577,0.22096083,0.57910156,0.33789062,8,1,-18,-8,-2,-12,-4,13
28.288312077522278,false,-0.625,0.58740234,0.27734375,0.74014264,0.22644971,0.58740234,0.27734375,-7,18,2,-4,1,5,5,43
28.29083800315857,false,-0.58251953,0.6738281,0.21923828,0.7373789,0.23584406,0.6738281,0.21923828,21,15,10,13,-3,21,6,2
28.31900203227997,false,-0.5800781,0.8203125,0.26171875,0.73295575,0.24604802,0.8203125,0.26171875,-20,-7,0,0,3,-10,-7,-15
28.348230004310608,false,-0.60009766,0.84521484,0.26953125,0.73041,0.2511204,0.84521484,0.26953125,16,-11,3,-2,-1,15,10,-7
28.350799083709717,false,-0.58984375,0.7211914,0.33007812,0.730516,0.25117594,0.7211914,0.33007812,19,-5,-3,-15,-1,-8,-6,2
28.379402995109558,false,-0.5932617,0.68310547,0.3881836,0.7309995,0.25239506,0.68310547,0.3881836,-2,5,3,-11,0,-13,-4,-5
28.408951997756958,false,-0.6152344,0.70654297,0.37646484,0.73124176,0.25514114,0.70654297,0.37646484,23,-18,-11,-35,-5,12,1,-11
28.411415100097656,false,-0.5776367,0.7373047,0.3256836,0.73141015,0.2592255,0.7373047,0.3256836,-17,21,2,31,-3,4,4,1
28.43924307823181,false,-0.5410156,0.7446289,0.34326172,0.7314214,0.26435667,0.7446289,0.34326172,3,2,5,12,0,4,5,19
28.4692280292511,false,-0.53466797,0.7558594,0.34472656,0.731842,0.2696035,0.7558594,0.34472656,-11,-18,3,2,-1,5,-6,-8
28.47200107574463,false,-0.53027344,0.8178711,0.32666016,0.73203313,0.2754051,0.8178711,0.32666016,-14,-2,-1,0,-2,0,-2,-9
28.528075098991394,false,-0.49365234,0.8720703,0.3178711,0.73312837,0.28046998,0.8720703,0.3178711,18,4,-2,2,0,0,6,32
28.559285044670105,false,-0.4897461,0.8066406,0.4404297,0.7370789,0.28168425,0.8066406,0.4404297,5,-12,4,-4,-3,0,-4,-12
28.589245080947876,false,-0.5024414,0.7475586,0.47851562,0.7412782,0.28371716,0.7475586,0.47851562,27,-2,-3,-8,-5,5,2,7
28.591955065727234,false,-0.44970703,0.8466797,0.43066406,0.7448574,0.29963982,0.8466797,0.43066406,-19,18,-2,5,-5,0,-1,-7
28.619668006896973,false,-0.31591797,0.8857422,0.47509766,0.7470488,0.31477496,0.8857422,0.47509766,19,2,0,17,3,9,0,-11
28.649078011512756,false,-0.31201172,0.8779297,0.49169922,0.7494396,0.31899098,0.8779297,0.49169922,-8,8,-12,8,-1,-4,5,11
28.651790022850037,false,-0.30419922,0.81347656,0.52001953,0.7527805,0.32166976,0.81347656,0.52001953,-7,-1,-6,3,3,2,-3,-12
28.679619073867798,false,-0.2602539,0.79248047,0.5385742,0.75524515,0.32601345,0.79248047,0.5385742,-6,-14,4,-5,1,2,0,1
28.709248065948486,false,-0.1821289,0.8383789,0.54345703,0.75583714,0.33259764,0.8383789,0.54345703,-1,-6,-12,-5,-2,-5,-5,-3
28.711512088775635,false,-0.1328125,0.96972656,0.55029297,0.7552322,0.33986363,0.96972656,0.55029297,0,-14,11,-15,2,-2,-9,-33
28.739784002304077,false,-0.14941406,0.9716797,0.5527344,0.75675166,0.34218016,0.9716797,0.5527344,-19,-11,1,-8,2,-2,-5,-16
28.76909303665161,false,-0.18847656,0.87597656,0.5605469,0.76103973,0.33986762,0.87597656,0.5605469,4,5,-1,2,-9,-1,2,17
28.771504044532776,false,-0.16259766,0.81347656,0.58691406,0.7638423,0.3396211,0.81347656,0.58691406,-5,-2,-23,-2,-3,-3,0,3
28.7999210357666,false,-0.1328125,0.9169922,0.57128906,0.76366955,0.34408164,0.9169922,0.57128906,9,7,0,2,0,4,4,3
28.82933008670807,false,-0.12207031,0.96972656,0.5283203,0.76409703,0.3472558,0.96972656,0.5283203,4,6,5,0,-1,-3,1,3
28.832155108451843,false,-0.119628906,0.8730469,0.56396484,0.76791716,0.34407035,0.8730469,0.56396484,-4,-3,1,3,3,-8,-3,-1
28.860226035118103,false,-0.122558594,0.7871094,0.5991211,0.77299917,0.33870596,0.7871094,0.5991211,0,0,-1,4,-3,2,2,3
28.889556050300598,false,-0.08251953,0.7734375,0.6269531,0.776901,0.3350416,0.7734375,0.6269531,-4,1,2,-2,2,0,0,4
28.892561078071594,false,-0.071777344,0.77441406,0.64501953,0.779773,0.3322352,0.77441406,0.64501953,3,1,3,0,5,-2,-3,-2
28.920095086097717,false,-0.072265625,0.77734375,0.64941406,0.7828673,0.32850397,0.77734375,0.64941406,-1,-1,-1,-5,-14,-1,0,6
28.949173092842102,false,-0.0625,0.75927734,0.6665039,0.786913,0.32289556,0.75927734,0.6665039,-7,0,2,-5,-10,6,4,-2
28.95201599597931,false,0.0,0.7246094,0.6557617,0.7911991,0.3159425,0.7246094,0.6557617,4,3,5,11,-5,8,15,5
28.979459047317505,false,0.06738281,0.68896484,0.64746094,0.7946088,0.30891958,0.68896484,0.64746094,-18,-8,-13,-28,-8,-16,-8,-1
29.008912086486816,false,0.06982422,0.6328125,0.65771484,0.7977162,0.30049405,0.6328125,0.65771484,11,4,9,21,6,37,31,15
29.011319994926453,false,0.024414062,0.64697266,0.68066406,0.8018438,0.29078054,0.64697266,0.68066406,14,1,3,-26,-3,-5,-16,2
29.03955602645874,false,0.045410156,0.67285156,0.68847656,0.8067778,0.2801566,0.67285156,0.68847656,4,-3,-8,-40,-13,-24,-25,-4
29.069396018981934,false,0.05078125,0.64941406,0.71875,0.81206864,0.26808518,0.64941406,0.71875,2,-5,-5,-2,-9,-9,7,-4
29.07115602493286,false,0.025390625,0.5415039,0.7416992,0.8174916,0.25386006,0.5415039,0.7416992,-35,-5,-1,16,-2,-1,-3,-4
29.099539041519165,false,0.0009765625,0.48828125,0.7578125,0.82280797,0.23976184,0.48828125,0.7578125,4,0,1,6,-5,-3,-2,-4
29.128982067108154,false,0.010253906,0.50683594,0.76953125,0.82755685,0.22736755,0.50683594,0.76953125,-6,0,2,-2,12,-1,-5,-2
29.13148808479309,false,-0.0048828125,0.5019531,0.77001953,0.8311648,0.21650447,0.5019531,0.77001953,-2,-7,1,15,10,4,0,-1
29.16128706932068,false,-0.025390625,0.44580078,0.7915039,0.83476067,0.20435645,0.44580078,0.7915039,-5,-5,-6,-10,-2,0,0,-3
29.218983054161072,false,-0.05810547,0.42822266,0.8105469,0.83822685,0.1933055,0.42822266,0.8105469,-10,-5,-6,14,6,0,-2,0
29.221695065498352,false,-0.104003906,0.44335938,0.82958984,0.8407868,0.18488155,0.44335938,0.82958984,4,2,-15,39,7,-3,-1,-5
29.249213099479675,false,-0.2055664,0.43945312,0.84521484,0.84195083,0.17389575,0.43945312,0.84521484,2,2,-4,-19,-10,-5,-3,-1
29.251710057258606,false,-0.24121094,0.5307617,0.8676758,0.8413534,0.17048028,0.5307617,0.8676758,1,3,-3,-34,-6,-1,-1,1
29.279872059822083,false,-0.23535156,0.53564453,0.8330078,0.8403723,0.16730538,0.53564453,0.8330078,-1,0,0,-18,-14,-7,-1,-2
29.30896306037903,false,-0.23925781,0.5288086,0.83740234,0.8389173,0.16388918,0.5288086,0.83740234,-4,-7,-3,54,8,-2,-4,-4
29.31138801574707,false,-0.234375,0.5058594,0.85791016,0.8368963,0.16065285,0.5058594,0.85791016,0,0,6,-12,2,6,2,1
29.339545011520386,false,-0.22705078,0.47509766,0.8823242,0.8345643,0.15723233,0.47509766,0.8823242,-5,0,10,0,35,-5,-3,-1
29.36987006664276,false,-0.22070312,0.42626953,0.8911133,0.8323027,0.15344742,0.42626953,0.8911133,-1,1,3,8,-12,0,0,-1
29.371308088302612,false,-0.22607422,0.40673828,0.8964844,0.8298785,0.15131427,0.40673828,0.8964844,2,3,11,-41,-24,3,2,1
29.399588108062744,false,-0.23095703,0.37646484,0.86035156,0.82708967,0.15107358,0.37646484,0.86035156,1,0,-2,-1,2,-1,-1,0
29.42908203601837,false,-0.2475586,0.40234375,0.86572266,0.8237189,0.15168148,0.40234375,0.86572266,1,-1,2,6,9,1,-1,-2
29.431671023368835,false,-0.2944336,0.4194336,0.8623047,0.82054126,0.15107042,0.4194336,0.8623047,-2,-2,-6,1,5,-3,-2,-2
29.459448099136353,false,-0.34960938,0.41015625,0.8457031,0.8181339,0.1488071,0.41015625,0.8457031,-3,0,-1,-3,7,-1,-1,-1
29.48909306526184,false,-0.38720703,0.36621094,0.7973633,0.81668174,0.14520821,0.36621094,0.7973633,0,2,-1,-4,-1,-1,-1,0
29.491501092910767,false,-0.4423828,0.35205078,0.77978516,0.8159125,0.1419164,0.35205078,0.77978516,-3,-2,3,2,-16,-1,1,-1
29.519745111465454,false,-0.44970703,0.36767578,0.7519531,0.8155502,0.13910927,0.36767578,0.7519531,1,-2,-1,20,-6,-2,-2,-1
29.5488840341568,false,-0.43115234,0.3779297,0.7475586,0.81528604,0.13654225,0.3779297,0.7475586,-3,5,13,-10,15,1,1,-2
29.55158305168152,false,-0.44482422,0.3701172,0.7319336,0.8149587,0.13415812,0.3701172,0.7319336,0,-2,-5,22,1,-2,-1,0
29.57989001274109,false,-0.46191406,0.40722656,0.78222656,0.81442976,0.13257448,0.40722656,0.78222656,-4,-4,-9,-5,-3,-19,-10,-2
29.609536051750183,false,-0.42089844,0.43017578,0.7758789,0.8136249,0.13171813,0.43017578,0.7758789,3,-2,-10,-42,4,8,2,4
29.61226201057434,false,-0.36132812,0.42089844,0.8022461,0.81261414,0.12964714,0.42089844,0.8022461,-3,-4,-1,14,-13,-6,-1,-3
29.64027202129364,false,-0.37060547,0.45263672,0.8852539,0.81142217,0.12652913,0.45263672,0.8852539,12,9,9,17,-2,-17,-31,-4
29.669442057609558,false,-0.35546875,0.4711914,0.9277344,0.81024015,0.12415463,0.4711914,0.9277344,-2,-4,-13,26,-18,-4,8,3
29.672779083251953,false,-0.30078125,0.45996094,0.89404297,0.80924696,0.12134431,0.45996094,0.89404297,-11,-5,3,-4,-4,1,-16,-14
29.699669003486633,false,-0.25634766,0.47705078,0.9765625,0.8083713,0.118655525,0.47705078,0.9765625,0,-3,-8,-28,10,0,-9,2
29.728974103927612,false,-0.30615234,0.71435547,1.1611328,0.80626583,0.12104059,0.71435547,1.1611328,-6,-1,-2,4,4,-44,-12,-16
29.731449007987976,false,-0.3310547,0.7602539,0.9316406,0.8027704,0.12671466,0.7602539,0.9316406,15,0,-8,-61,-9,8,-61,-2
29.759467005729675,false,-0.1381836,0.34228516,0.9038086,0.80110484,0.12439251,0.34228516,0.9038086,8,-2,-2,33,8,-11,14,-28
29.789157032966614,false,-0.1328125,0.33398438,0.9326172,0.79929805,0.12787548,0.33398438,0.9326172,-9,-3,0,-2,-1,4,41,15
29.791518092155457,false,-0.109375,0.38720703,0.83496094,0.7963047,0.13544382,0.38720703,0.83496094,-1,0,0,-3,-1,15,-8,6
29.819643020629883,false,-0.09863281,0.5732422,0.8286133,0.7924716,0.14191608,0.5732422,0.8286133,-20,-3,2,4,5,14,13,-6
29.8489670753479,false,-0.21044922,0.6166992,0.9321289,0.79061055,0.13898094,0.6166992,0.9321289,-1,1,6,23,9,16,26,14
29.851433038711548,false,-0.19482422,0.36816406,0.9848633,0.7903868,0.12982877,0.36816406,0.9848633,6,2,2,14,-3,8,9,8
29.879619002342224,false,-0.17041016,0.21728516,1.0136719,0.7901821,0.12347741,0.21728516,1.0136719,5,3,2,-3,2,5,-49,-6
29.908996105194092,false,-0.13476562,0.24560547,0.95458984,0.7895525,0.12330082,0.24560547,0.95458984,1,-3,-4,-12,-3,-12,16,4
29.911538004875183,false,-0.12890625,0.42089844,0.88427734,0.78777766,0.12854949,0.42089844,0.88427734,-1,-4,-3,2,7,-2,21,4
29.939922094345093,false,-0.12792969,0.52734375,0.83740234,0.785333,0.13440877,0.52734375,0.83740234,-1,-2,-3,9,-3,24,19,6
29.970323085784912,false,-0.14404297,0.5576172,0.8540039,0.7828636,0.13794416,0.5576172,0.8540039,6,3,1,-13,-8,-14,-15,2
29.972349047660828,false,-0.1694336,0.49853516,0.8886719,0.78054905,0.13831124,0.49853516,0.8886719,-9,-1,1,5,3,-16,2,-1
30.029596090316772,false,-0.1459961,0.40771484,0.8959961,0.7787716,0.13702816,0.40771484,0.8959961,-3,-1,0,-10,-8,-21,9,-7
30.031545042991638,false,-0.12011719,0.37158203,0.9116211,0.77726233,0.13629864,0.37158203,0.9116211,2,1,-1,8,-4,-2,-13,2
30.060118079185486,false,-0.13378906,0.45166016,0.8618164,0.77347547,0.13971633,0.45166016,0.8618164,1,-1,-3,4,2,11,7,-1
30.088911056518555,false,-0.11669922,0.48095703,0.83740234,0.7713968,0.14154686,0.48095703,0.83740234,0,-4,-7,-24,-2,0,8,3
30.09145700931549,false,-0.1015625,0.49414062,0.83154297,0.7695013,0.14191248,0.49414062,0.83154297,-1,2,-2,-2,4,2,-1,0
30.11986804008484,false,-0.1381836,0.5107422,0.8754883,0.7676766,0.14136432,0.5107422,0.8754883,4,0,7,4,0,-18,-45,-1
30.148906111717224,false,-0.15820312,0.45898438,0.88671875,0.76579314,0.14057243,0.45898438,0.88671875,21,-5,0,-4,-10,-17,9,26
30.151506066322327,false,-0.140625,0.45654297,0.85302734,0.76378745,0.14216103,0.45654297,0.85302734,7,2,1,-9,0,72,62,29
30.179222106933594,false,-0.15966797,0.5541992,0.85498047,0.76169723,0.1468582,0.5541992,0.85498047,-3,-3,-5,-20,-10,35,111,33
30.209022998809814,false,-0.13330078,0.6176758,0.9121094,0.759245,0.15308195,0.6176758,0.9121094,6,10,3,7,17,-30,-33,10
30.21176302433014,false,-0.084472656,0.5419922,0.94189453,0.75638455,0.16028613,0.5419922,0.94189453,-6,-1,-2,10,4,-14,-17,-3
30.240047097206116,false,-0.12695312,0.5493164,0.92529297,0.7517399,0.17078339,0.5493164,0.92529297,-14,-2,-1,6,-7,4,-10,-16
30.269949078559875,false,-0.10986328,0.6269531,0.88378906,0.7463877,0.18134755,0.6269531,0.88378906,-12,-3,-4,7,-4,-26,-42,-43
30.272638082504272,false,-0.017578125,0.61816406,0.8574219,0.74255943,0.18776101,0.61816406,0.8574219,-4,-2,-1,1,7,25,-8,-11
30.29946005344391,false,-0.07373047,0.51123047,0.88134766,0.74002546,0.19007252,0.51123047,0.88134766,-2,0,-1,2,0,-1,-1,-8
30.32898509502411,false,-0.11816406,0.47705078,0.89990234,0.737949,0.19165921,0.47705078,0.89990234,-2,-1,0,0,-3,-13,-18,-9
30.331333994865417,false,-0.1328125,0.52441406,0.8989258,0.7353728,0.1945857,0.52441406,0.8989258,-1,0,0,-4,-8,-13,-5,-3
30.388400077819824,false,-0.10107422,0.53027344,0.88378906,0.73256296,0.19769801,0.53027344,0.88378906,0,-2,0,-1,-7,5,-5,-5
30.3902930021286,false,-0.071777344,0.54345703,0.86328125,0.7295242,0.20099759,0.54345703,0.86328125,-2,1,1,-1,0,-1,5,0
30.41972005367279,false,-0.026367188,0.54345703,0.8359375,0.72335064,0.20526776,0.54345703,0.8359375,1,0,-2,-2,-1,-3,3,3
30.479432106018066,false,-0.018066406,0.5463867,0.8183594,0.71995693,0.20747212,0.5463867,0.8183594,1,0,4,-4,29,1,-5,-2
30.481667041778564,false,-0.0087890625,0.5620117,0.8286133,0.7161534,0.20948082,0.5620117,0.8286133,-1,-2,-6,2,3,10,-1,-1
30.50898003578186,false,-0.00390625,0.55566406,0.83203125,0.70806164,0.21467698,0.55566406,0.83203125,-10,-14,-6,-1,-26,-14,-15,-18
30.511442065238953,false,0.028320312,0.5576172,0.8305664,0.703533,0.21857987,0.5576172,0.8305664,-13,2,3,-2,-13,1,6,1
30.539589047431946,false,0.05859375,0.59716797,0.85546875,0.6995225,0.22218691,0.59716797,0.85546875,9,-1,0,1,-8,5,5,6
30.569342017173767,false,0.095214844,0.60058594,0.89746094,0.69582427,0.22595978,0.60058594,0.89746094,8,4,2,3,4,-4,4,1
30.57174003124237,false,0.10449219,0.546875,0.9169922,0.6927803,0.22901425,0.546875,0.9169922,-11,15,50,-5,2,2,-7,-14
30.599553108215332,false,0.15283203,0.50097656,0.89453125,0.6896298,0.23396628,0.50097656,0.89453125,2,1,-14,1,10,4,1,2
30.628995060920715,false,0.19335938,0.5019531,0.85498047,0.68559575,0.24165541,0.5019531,0.85498047,3,0,-4,-3,-5,-1,3,3
30.631367087364197,false,0.20019531,0.5473633,0.82421875,0.68101096,0.25019842,0.5473633,0.82421875,1,-3,-12,-6,17,-7,-1,11
30.659545063972473,false,0.19580078,0.57128906,0.80566406,0.6759976,0.25874075,0.57128906,0.80566406,8,-3,0,2,-6,5,2,5
30.68964910507202,false,0.19824219,0.5629883,0.80371094,0.67130136,0.26563954,0.5629883,0.80371094,1,-1,-14,0,-2,-4,2,-5
30.692249059677124,false,0.20751953,0.55029297,0.7836914,0.6667957,0.2715648,0.55029297,0.7836914,-1,2,-3,-3,-4,4,1,-1
30.719688057899475,false,0.2319336,0.5576172,0.77783203,0.6621261,0.27728972,0.5576172,0.77783203,-1,-1,1,1,-24,-3,-3,-5
30.74884605407715,false,0.23388672,0.54248047,0.76953125,0.65712875,0.28229803,0.54248047,0.76953125,-6,5,23,2,3,-8,-3,-5
30.751468062400818,false,0.25976562,0.55322266,0.7714844,0.6523884,0.28639656,0.55322266,0.7714844,5,0,-7,3,4,4,0,1
30.779596090316772,false,0.28076172,0.54833984,0.78564453,0.6479607,0.28955594,0.54833984,0.78564453,-3,-2,-4,2,14,-3,0,1
30.80918300151825,false,0.2915039,0.5449219,0.7807617,0.643881,0.29200178,0.5449219,0.7807617,-3,-4,-2,0,2,1,-2,2
30.839003086090088,false,0.3178711,0.5058594,0.7685547,0.640125,0.29366276,0.5058594,0.7685547,-2,-4,-9,-6,0,1,-3,0
30.841546058654785,false,0.33740234,0.4477539,0.7495117,0.6365046,0.29463056,0.4477539,0.7495117,0,-1,-2,-7,16,-2,0,1
30.869105100631714,false,0.34521484,0.47753906,0.73876953,0.63284653,0.29591435,0.47753906,0.73876953,-1,-2,-4,1,-3,0,-1,0
30.87165904045105,false,0.34472656,0.53222656,0.72753906,0.629132,0.29683405,0.53222656,0.72753906,-1,-2,-2,6,3,5,1,0
30.89966607093811,false,0.3569336,0.55859375,0.71972656,0.6258814,0.29639944,0.55859375,0.71972656,-1,-2,-2,0,14,-5,-1,0
30.928969025611877,false,0.35302734,0.5439453,0.75634766,0.6236877,0.29359344,0.5439453,0.75634766,-1,-2,-4,-5,4,1,1,2
30.931361079216003,false,0.328125,0.5083008,0.7680664,0.621801,0.2895675,0.5083008,0.7680664,-2,-3,-7,0,7,-2,2,0
30.959471106529236,false,0.30029297,0.49658203,0.7788086,0.6198344,0.28528863,0.49658203,0.7788086,0,0,-1,-1,28,-2,-3,-2
31.018243074417114,false,0.26611328,0.48876953,0.7709961,0.6176374,0.28095514,0.48876953,0.7709961,0,-2,0,-3,2,-2,-1,-6
31.02107608318329,false,0.2241211,0.49023438,0.7714844,0.61519253,0.2763148,0.49023438,0.7714844,-1,0,-3,-1,1,-2,-2,-1
31.048994064331055,false,0.19580078,0.47216797,0.79003906,0.61032546,0.26618955,0.47216797,0.79003906,1,-2,0,-2,-3,1,-1,0
31.051542043685913,false,0.18798828,0.4663086,0.78222656,0.60744643,0.26172933,0.4663086,0.78222656,0,3,1,2,-17,2,0,1
31.079416036605835,false,0.19677734,0.44580078,0.78271484,0.60415745,0.25770384,0.44580078,0.78271484,0,-2,-7,-2,-25,-6,-3,-1
31.10914409160614,false,0.19726562,0.4638672,0.79541016,0.6007305,0.2539768,0.4638672,0.79541016,-3,-5,-6,0,15,1,1,1
31.11144709587097,false,0.17529297,0.48339844,0.8027344,0.5972052,0.2501987,0.48339844,0.8027344,1,0,-1,1,1,-1,0,0
31.139650106430054,false,0.15917969,0.49560547,0.82958984,0.5934797,0.24616925,0.49560547,0.82958984,-5,-3,1,2,-1,-2,1,-2
31.169811010360718,false,0.15039062,0.52734375,0.85253906,0.58961916,0.24213448,0.52734375,0.85253906,0,0,-4,0,-1,3,-1,0
31.17190408706665,false,0.13134766,0.51953125,0.86083984,0.5855316,0.2380458,0.51953125,0.86083984,-2,-3,0,-2,4,2,-1,-2
31.199753999710083,false,0.13574219,0.50634766,0.8623047,0.5809011,0.23432587,0.50634766,0.8623047,0,2,7,-2,-7,-2,-1,-2
31.228915095329285,false,0.14697266,0.48242188,0.859375,0.5757261,0.23103511,0.48242188,0.859375,1,4,-3,0,5,-6,0,1
31.23129403591156,false,0.16015625,0.5180664,0.8544922,0.56991947,0.2282852,0.5180664,0.8544922,2,2,0,-3,-1,-1,0,-1
31.259481072425842,false,0.15966797,0.5126953,0.85546875,0.56380564,0.22510721,0.5126953,0.85546875,0,-1,0,0,-3,0,0,-1
31.28891611099243,false,0.1616211,0.5258789,0.88427734,0.55757695,0.22119966,0.5258789,0.88427734,-2,-2,0,-1,14,3,-1,-3
31.291454076766968,false,0.16308594,0.4897461,0.87060547,0.55105513,0.21711378,0.4897461,0.87060547,-1,-2,-6,3,-1,-1,0,0
31.320223093032837,false,0.18847656,0.46533203,0.8491211,0.54444796,0.21326245,0.46533203,0.8491211,0,-3,-1,-2,9,-6,-1,0
31.349677085876465,false,0.20458984,0.4633789,0.8300781,0.5376413,0.20973383,0.4633789,0.8300781,0,-1,-1,-3,-5,3,-2,-2
31.379194021224976,false,0.18798828,0.4453125,0.8222656,0.5305466,0.20594388,0.4453125,0.8222656,0,1,-2,-1,4,2,-1,1
31.38230800628662,false,0.1430664,0.4873047,0.8173828,0.5234559,0.20191139,0.4873047,0.8173828,0,-1,-1,1,-7,-1,1,0
31.408942103385925,false,0.13183594,0.5097656,0.8417969,0.51674724,0.19721359,0.5097656,0.8417969,-3,-2,-3,0,-4,0,-1,-2
31.411534070968628,false,0.114746094,0.51416016,0.8432617,0.51035565,0.19190983,0.51416016,0.8432617,-4,-3,-6,-5,-27,-7,-2,-1
31.439514994621277,false,0.10498047,0.48535156,0.8408203,0.50415295,0.18609715,0.48535156,0.8408203,1,1,5,2,-7,3,0,0
31.469215035438538,false,0.1015625,0.43652344,0.83496094,0.49800453,0.18018255,0.43652344,0.83496094,0,0,-3,0,1,2,-2,-2
31.471334099769592,false,0.095703125,0.43701172,0.84228516,0.49172547,0.17426468,0.43701172,0.84228516,-3,-3,-4,0,-13,1,-1,-3
31.499803066253662,false,0.07519531,0.4868164,0.8417969,0.48544604,0.16865176,0.4868164,0.8417969,-2,-1,1,-1,6,-1,-2,-1
31.52910006046295,false,0.049316406,0.5126953,0.84033203,0.47904336,0.16261105,0.5126953,0.84033203,-1,0,-7,-2,4,2,1,-1
31.531400084495544,false,0.05859375,0.46484375,0.8066406,0.47263098,0.15620078,0.46484375,0.8066406,-3,-1,-1,-1,6,-1,-1,-1
31.560012102127075,false,0.057128906,0.44091797,0.83203125,0.4661988,0.14917386,0.44091797,0.83203125,1,2,12,0,-2,-2,-1,1
31.58894407749176,false,0.008300781,0.4423828,0.84033203,0.46029377,0.1419763,0.4423828,0.84033203,-1,-2,-5,-4,10,-1,0,-2
31.5915549993515,false,-0.015625,0.46142578,0.8671875,0.45448592,0.13501516,0.46142578,0.8671875,1,-3,-3,-1,-3,-3,1,1
31.61949908733368,false,-0.036621094,0.45654297,0.8774414,0.4488804,0.12781556,0.45654297,0.8774414,0,-1,1,-1,3,4,1,0
31.648937106132507,false,-0.023925781,0.44970703,0.8652344,0.44405892,0.12104039,0.44970703,0.8652344,-3,-3,-12,-6,15,-2,-3,-1
31.67844009399414,false,-0.0078125,0.4111328,0.82373047,0.4395938,0.114384726,0.4111328,0.82373047,1,-1,0,-1,-7,-1,-2,-3
31.6808580160141,false,-0.024414062,0.42578125,0.8359375,0.4356961,0.10797793,0.42578125,0.8359375,-2,-1,1,2,0,-3,-1,0
31.709501028060913,false,-0.05126953,0.47460938,0.84375,0.43318912,0.10162884,0.47460938,0.84375,2,0,3,2,-5,-2,2,1
31.73839509487152,false,-0.07470703,0.4736328,0.86328125,0.4317207,0.09509697,0.4736328,0.86328125,-5,-5,-9,-4,-1,-11,-6,-3
31.741018056869507,false,-0.075683594,0.45751953,0.8408203,0.4316041,0.089238465,0.45751953,0.8408203,1,-1,0,2,-5,2,0,-2
31.769152998924255,false,-0.07861328,0.46289062,0.84033203,0.4331381,0.08423486,0.46289062,0.84033203,3,1,-3,0,8,1,1,2
31.798115015029907,false,-0.13232422,0.4663086,0.8881836,0.4355747,0.07953389,0.4663086,0.8881836,-3,-7,-11,2,1,0,2,-3
31.799721002578735,false,-0.15771484,0.4946289,0.9033203,0.43924156,0.07575025,0.4946289,0.9033203,0,2,6,2,-12,-4,-1,0
31.828201055526733,false,-0.1303711,0.4951172,0.9165039,0.44410503,0.07324437,0.4951172,0.9165039,2,0,1,-1,3,-1,1,0
31.85806703567505,false,-0.13916016,0.4970703,0.9121094,0.44948733,0.07184228,0.4970703,0.9121094,-2,-2,-6,-3,-2,-3,-1,0
31.859729051589966,false,-0.15966797,0.4794922,0.87109375,0.45576575,0.07135264,0.4794922,0.87109375,1,-1,-10,0,9,0,-1,-1
31.888440012931824,false,-0.16015625,0.46142578,0.8701172,0.46223074,0.07165706,0.46142578,0.8701172,1,0,0,3,4,2,0,1
31.91871404647827,false,-0.1743164,0.49121094,0.8725586,0.46875384,0.073059686,0.49121094,0.8725586,2,-1,-6,0,16,0,1,-1
31.91989004611969,false,-0.16113281,0.50683594,0.87939453,0.47525173,0.07556661,0.50683594,0.87939453,-3,-1,4,-8,-9,-3,-1,-2
31.948662042617798,false,-0.171875,0.52490234,0.88916016,0.4816539,0.07873952,0.52490234,0.88916016,0,-3,-4,-2,-2,0,0,-1
31.978437066078186,false,-0.15283203,0.5395508,0.90185547,0.4878156,0.08264543,0.5395508,0.90185547,0,-1,-8,-1,-9,0,0,0
31.981357097625732,false,-0.13330078,0.5214844,0.9013672,0.49378377,0.086976744,0.5214844,0.9013672,1,2,-3,-3,-4,1,-1,-2
32.00868010520935,false,-0.122558594,0.56933594,0.9277344,0.49967006,0.09223082,0.56933594,0.9277344,-2,-3,-1,0,5,2,0,-2
32.03856408596039,false,-0.11376953,0.625,0.94970703,0.50495094,0.09851213,0.625,0.94970703,-1,-1,-3,2,1,-2,1,1
32.04066503047943,false,-0.07373047,0.62158203,0.94140625,0.5095592,0.10504928,0.62158203,0.94140625,-2,-1,1,-3,7,-5,-3,-1
32.06826400756836,false,-0.044433594,0.6040039,0.96191406,0.51363474,0.11139434,0.6040039,0.96191406,-1,2,11,0,-5,1,-1,-2
32.098069071769714,false,-0.05078125,0.5439453,0.9628906,0.5171838,0.117500156,0.5439453,0.9628906,-4,0,14,-2,-14,-3,-2,-1
32.099746108055115,false,-0.05859375,0.5761719,0.97509766,0.52042246,0.12403219,0.5761719,0.97509766,1,-2,1,0,0,0,-1,-1
32.12820506095886,false,-0.071777344,0.61816406,0.984375,0.5231024,0.13117236,0.61816406,0.984375,-2,-3,-8,0,-10,0,-3,-1
32.15947604179382,false,-0.061523438,0.59228516,0.9848633,0.5253649,0.13800976,0.59228516,0.9848633,-1,-1,-2,-1,-18,-3,0,0
32.161259055137634,false,-0.06298828,0.5283203,0.9663086,0.5276313,0.14448209,0.5283203,0.9663086,-1,-2,-5,-5,3,2,1,0
32.18805003166199,false,-0.037109375,0.5,0.9458008,0.52993983,0.1513765,0.5,0.9458008,-3,-3,-4,0,10,1,-1,0
32.21811509132385,false,-0.017089844,0.49365234,0.93652344,0.53201145,0.15912734,0.49365234,0.93652344,2,-2,-4,-1,-2,-3,-1,-2
32.219927072525024,false,0.03466797,0.50390625,0.9238281,0.5339069,0.16736855,0.50390625,0.9238281,-1,0,4,-1,21,-1,-2,0
32.24870705604553,false,0.0546875,0.53759766,0.8955078,0.5358678,0.17573339,0.53759766,0.8955078,-1,-2,-7,-2,-1,-1,-1,0
32.27845799922943,false,0.040527344,0.5605469,0.88916016,0.53793633,0.18372725,0.5605469,0.88916016,-1,2,10,1,-5,1,-1,0
32.2804811000824,false,0.06542969,0.5517578,0.8574219,0.5403779,0.19141819,0.5517578,0.8574219,-2,1,6,0,-9,-7,-3,-2
32.30864906311035,false,0.110839844,0.5395508,0.82470703,0.5435917,0.19867402,0.5395508,0.82470703,-3,-3,11,-3,12,5,2,3
32.33867704868317,false,0.16113281,0.50439453,0.8066406,0.5472101,0.20600492,0.50439453,0.8066406,2,1,-5,1,-1,-1,-1,-2
32.33980906009674,false,0.1538086,0.46777344,0.7739258,0.55106676,0.2136391,0.46777344,0.7739258,0,0,-6,2,9,2,2,2
32.369240045547485,false,0.16357422,0.4580078,0.7558594,0.55531794,0.2211994,0.4580078,0.7558594,2,0,-5,2,0,4,0,-1
32.39848506450653,false,0.2006836,0.44873047,0.73876953,0.5596794,0.22884044,0.44873047,0.73876953,-3,-2,-7,-3,-1,-1,0,-2
32.40044605731964,false,0.22509766,0.45361328,0.7265625,0.56455225,0.23616095,0.45361328,0.7265625,-2,-2,3,1,-7,-1,-1,-1
32.42887604236603,false,0.21289062,0.48583984,0.7285156,0.5701441,0.24274309,0.48583984,0.7285156,0,1,0,-3,0,-3,-3,-2
32.458367109298706,false,0.19335938,0.48242188,0.7114258,0.57675713,0.2480013,0.48242188,0.7114258,-1,2,5,-1,4,2,0,-1
32.46040999889374,false,0.203125,0.4716797,0.6738281,0.584441,0.2517827,0.4716797,0.6738281,0,-3,-8,19,2,1,0,0
32.48917508125305,false,0.2109375,0.49853516,0.66796875,0.59250164,0.2547751,0.49853516,0.66796875,0,0,4,0,-1,-1,-1,-2
32.51849400997162,false,0.16064453,0.5678711,0.6923828,0.6001386,0.25673136,0.5678711,0.6923828,-1,0,-2,10,5,-2,-2,1
32.52025902271271,false,0.1274414,0.58984375,0.6767578,0.60744536,0.25831077,0.58984375,0.6767578,-2,-2,-3,-9,-5,-3,-1,-2
32.5485360622406,false,0.1171875,0.6430664,0.69433594,0.61479986,0.25930002,0.6430664,0.69433594,-2,-3,-6,-9,-2,-2,-2,-3
32.578251004219055,false,0.11376953,0.60058594,0.66015625,0.6216323,0.25984767,0.60058594,0.66015625,1,1,2,-4,-1,-3,0,0
32.58093702793121,false,0.13769531,0.6748047,0.67871094,0.6278063,0.2610722,0.6748047,0.67871094,0,0,-5,-9,-2,-2,0,1
32.60865008831024,false,0.11035156,0.67578125,0.6660156,0.6333929,0.26234195,0.67578125,0.6660156,-1,-3,-7,-12,-5,-3,0,1
32.63817501068115,false,0.11279297,0.67626953,0.69970703,0.6382686,0.2635597,0.67626953,0.69970703,1,0,1,0,-4,2,-2,0
32.64104902744293,false,0.08154297,0.6948242,0.71777344,0.6426907,0.26521903,0.6948242,0.71777344,0,0,5,28,11,0,0,-1
32.66833806037903,false,0.060058594,0.6635742,0.6738281,0.64639634,0.26734808,0.6635742,0.6738281,-4,-4,-7,22,-2,-5,-3,-2
32.69804608821869,false,0.04296875,0.70410156,0.6953125,0.64955294,0.26923305,0.70410156,0.6953125,-1,2,6,13,10,4,-1,-2
32.69963502883911,false,-0.0029296875,0.79003906,0.73046875,0.65206826,0.27070326,0.79003906,0.73046875,-1,-2,-5,-15,-7,-4,-3,-1
32.758177042007446,false,-0.024414062,0.8647461,0.74072266,0.6540887,0.2708889,0.8647461,0.74072266,-2,3,10,10,11,2,0,-3
32.75996208190918,false,0.0014648438,0.84814453,0.72216797,0.6563505,0.2693033,0.84814453,0.72216797,0,-2,-1,-22,-11,-1,1,0
32.76208508014679,false,0.059570312,0.83740234,0.77490234,0.65904754,0.26595074,0.83740234,0.77490234,3,-2,-12,-8,8,6,4,3
32.788392066955566,false,0.030761719,0.7734375,0.71191406,0.6611656,0.26270834,0.7734375,0.71191406,-1,-7,-13,5,0,-1,-1,-1
32.8185750246048,false,0.01171875,0.7709961,0.77197266,0.6650605,0.2572715,0.7709961,0.77197266,-1,1,-1,6,12,1,-3,-1
32.82105803489685,false,-0.024414062,0.74560547,0.7788086,0.6665337,0.25349033,0.74560547,0.7788086,0,1,5,-21,-9,3,3,3
32.848653078079224,false,-0.0063476562,0.75097656,0.72802734,0.66806173,0.2509275,0.75097656,0.72802734,-2,0,6,37,-15,-6,-3,-2
32.87856602668762,false,-0.033203125,0.7011719,0.77441406,0.67045313,0.24726927,0.7011719,0.77441406,-2,-1,0,7,10,2,0,-1
32.88122999668121,false,-0.05126953,0.56884766,0.7480469,0.6724787,0.24367204,0.56884766,0.7480469,9,0,-9,-56,-5,7,6,6
32.90821301937103,false,-0.033203125,0.5595703,0.70458984,0.6743293,0.24170382,0.5595703,0.70458984,-1,0,-1,-2,-3,-2,-3,-2
32.93923604488373,false,-0.068847656,0.6333008,0.74609375,0.67642385,0.23945233,0.6333008,0.74609375,-5,0,10,26,4,-2,-3,-5
32.9408860206604,false,-0.1352539,0.68115234,0.7348633,0.6786683,0.2372501,0.68115234,0.7348633,-3,-3,-8,-1,-10,-3,-1,0
32.96860706806183,false,-0.12841797,0.6845703,0.7260742,0.6810375,0.23397121,0.6845703,0.7260742,-3,0,2,-7,-1,-2,-1,-3
32.998332023620605,false,-0.11816406,0.66796875,0.72216797,0.6837508,0.22932081,0.66796875,0.72216797,-1,-3,-3,11,-5,-2,-3,-1
33.000426054000854,false,-0.14404297,0.64160156,0.7519531,0.68669206,0.22401422,0.64160156,0.7519531,6,6,-5,-54,-13,-13,-6,2
33.028290033340454,false,-0.1538086,0.61279297,0.71777344,0.68972087,0.21839125,0.61279297,0.71777344,0,-2,-6,-24,-5,0,0,0
33.05823302268982,false,-0.19873047,0.6254883,0.76660156,0.6929548,0.21185994,0.6254883,0.76660156,-2,-1,10,31,5,2,-1,-2
33.060467004776,false,-0.21142578,0.62353516,0.73828125,0.69596016,0.20563847,0.62353516,0.73828125,-1,5,10,-19,-5,0,2,1
33.088807106018066,false,-0.25927734,0.64501953,0.7597656,0.7000668,0.19801348,0.64501953,0.7597656,1,-2,-7,-8,-10,-1,-1,0
33.11931002140045,false,-0.20166016,0.60595703,0.77783203,0.70340014,0.1914147,0.60595703,0.77783203,-4,-1,4,-3,3,0,-1,-3
33.122252106666565,false,-0.22753906,0.59472656,0.7734375,0.70712465,0.1856164,0.59472656,0.7734375,1,-1,-8,-30,-8,-2,1,0
33.14832103252411,false,-0.23046875,0.57421875,0.80078125,0.7106589,0.18140328,0.57421875,0.80078125,-5,-5,0,37,4,0,-1,-5
33.17824900150299,false,-0.25,0.55029297,0.78759766,0.7139803,0.17866294,0.55029297,0.78759766,-2,-1,-3,-2,2,-2,0,-2
33.18024301528931,false,-0.23046875,0.5253906,0.77734375,0.7167239,0.17744136,0.5253906,0.77734375,1,2,0,-26,3,4,-1,0
33.20836305618286,false,-0.19433594,0.5336914,0.7895508,0.7188518,0.17743927,0.5336914,0.7895508,-3,-2,7,7,3,0,-2,-3
33.23832309246063,false,-0.18115234,0.56640625,0.7602539,0.7205835,0.17805524,0.56640625,0.7602539,-2,3,12,-12,-3,0,-1,-2
33.23987400531769,false,-0.2006836,0.58935547,0.7548828,0.72213894,0.17859678,0.58935547,0.7548828,1,1,4,59,1,-2,-1,0
33.26797008514404,false,-0.2084961,0.5654297,0.75146484,0.7239636,0.17859519,0.5654297,0.75146484,-2,-4,-11,7,-2,-4,-2,-1
33.298142075538635,false,-0.20654297,0.59765625,0.7348633,0.72515166,0.17921257,0.59765625,0.7348633,-1,-4,-9,10,17,0,-3,-2
33.300095081329346,false,-0.2421875,0.6557617,0.7392578,0.72616553,0.17865735,0.6557617,0.7392578,-2,-2,-1,18,-2,0,1,1
33.32830309867859,false,-0.2006836,0.75683594,0.8125,0.7266082,0.1764027,0.75683594,0.8125,0,0,-1,-7,9,-4,-1,-1
33.358296036720276,false,-0.1508789,0.59033203,0.8569336,0.727947,0.17151862,0.59033203,0.8569336,-3,-1,10,-30,-14,-5,-3,-2
33.360393047332764,false,-0.13769531,0.45361328,0.88427734,0.7292352,0.16718633,0.45361328,0.88427734,5,5,1,0,-8,-7,-6,2
33.38935303688049,false,-0.14013672,0.48535156,0.89501953,0.7298652,0.16578689,0.48535156,0.89501953,-1,-2,1,9,0,2,1,-2
33.41893208026886,false,-0.12792969,0.49169922,0.89160156,0.72964454,0.16602251,0.49169922,0.89160156,1,1,0,51,9,3,0,0
33.42167508602142,false,-0.08886719,0.4921875,0.8803711,0.72856736,0.16755341,0.4921875,0.8803711,-5,-1,14,-12,-7,-2,-2,-4
33.44831109046936,false,-0.07861328,0.45898438,0.8676758,0.7269246,0.16944687,0.45898438,0.8676758,1,0,-7,-6,-3,2,6,2
33.47831308841705,false,-0.080078125,0.47705078,0.859375,0.7248549,0.17225604,0.47705078,0.859375,-1,-4,-9,-5,2,0,-2,1
33.48048806190491,false,-0.064941406,0.5,0.84716797,0.72239816,0.17554855,0.5,0.84716797,-6,-2,-12,2,13,2,-1,-3
33.50819706916809,false,-0.0625,0.52246094,0.82373047,0.71971494,0.17878425,0.52246094,0.82373047,2,1,2,-6,-3,1,0,0
33.538414001464844,false,-0.049316406,0.54345703,0.8388672,0.7168424,0.18226255,0.54345703,0.8388672,1,0,-8,-4,1,-3,-3,1
33.5405170917511,false,-0.060546875,0.57666016,0.83203125,0.7142105,0.1852516,0.57666016,0.83203125,-2,-2,0,19,-18,-2,0,-2
33.56849801540375,false,-0.088378906,0.5649414,0.8183594,0.71183723,0.18793918,0.5649414,0.8183594,-1,1,1,4,0,4,2,-3
33.59836804866791,false,-0.07910156,0.6040039,0.8046875,0.7097686,0.19105397,0.6040039,0.8046875,2,0,3,57,2,1,1,2
33.60059201717377,false,-0.09326172,0.64160156,0.79248047,0.70810676,0.19355284,0.64160156,0.79248047,-1,-3,1,-20,-6,5,3,1
33.62848401069641,false,-0.08935547,0.6220703,0.7832031,0.7070199,0.19496,0.6220703,0.7832031,-2,1,11,25,29,0,-2,-2
33.658637046813965,false,-0.07373047,0.61865234,0.7885742,0.7066428,0.19587258,0.61865234,0.7885742,6,4,-1,-25,2,-7,-4,-1
33.66098403930664,false,-0.084472656,0.6411133,0.7890625,0.706515,0.195871,0.6411133,0.7890625,1,-4,-5,66,-12,-3,-3,-3
33.68832004070282,false,-0.08886719,0.59716797,0.8095703,0.7070748,0.19434792,0.59716797,0.8095703,-2,-1,-5,-51,-1,8,2,1
33.71842706203461,false,-0.076171875,0.56689453,0.8203125,0.7077392,0.19275898,0.56689453,0.8203125,0,2,-3,-17,-13,-9,-2,-1
33.72079908847809,false,-0.087890625,0.5883789,0.81152344,0.7084216,0.19129702,0.5883789,0.81152344,-5,-7,3,-32,-1,1,3,-2
33.74835503101349,false,-0.091308594,0.56152344,0.8173828,0.7090996,0.1891624,0.56152344,0.8173828,-2,1,-6,8,3,0,-1,2
33.77853000164032,false,-0.068847656,0.5566406,0.8334961,0.70933473,0.18732882,0.5566406,0.8334961,2,-1,-6,18,-9,-4,0,-2
33.780498027801514,false,-0.09472656,0.55322266,0.82421875,0.709484,0.18536673,0.55322266,0.82421875,-4,0,-4,-33,-8,-2,0,-3
33.808168053627014,false,-0.08154297,0.5576172,0.82373047,0.70955426,0.18372114,0.5576172,0.82373047,-7,-8,-4,-55,-4,3,1,-3
33.83829700946808,false,-0.103027344,0.57470703,0.8251953,0.70931566,0.18164732,0.57470703,0.8251953,-1,-3,-7,-36,-7,-1,-1,0
33.84064304828644,false,-0.088378906,0.5683594,0.8183594,0.7096841,0.1795726,0.5683594,0.8183594,-5,-2,3,0,6,-5,-5,-1
33.86869704723358,false,-0.1352539,0.59716797,0.8183594,0.70928895,0.176956,0.59716797,0.8183594,0,1,-2,-57,-3,-3,-2,0
33.8988471031189,false,-0.10253906,0.5361328,0.8251953,0.7094616,0.17396244,0.5361328,0.8251953,5,5,7,4,13,0,1,0
33.90156602859497,false,-0.09765625,0.5654297,0.80810547,0.7097477,0.17176041,0.5654297,0.80810547,1,3,6,36,-9,3,0,2
33.92867600917816,false,-0.110839844,0.5527344,0.8618164,0.71007395,0.16865247,0.5527344,0.8618164,10,5,5,-8,-8,4,1,2
33.959084033966064,false,-0.12158203,0.51904297,0.83935547,0.7106103,0.16578057,0.51904297,0.83935547,-4,-5,1,69,8,-1,-1,-3
33.960546016693115,false,-0.115234375,0.55810547,0.80859375,0.71091485,0.16339993,0.55810547,0.80859375,-3,-7,-5,22,-10,-8,-3,-1
33.98832607269287,false,0.26708984,0.6479492,0.7524414,0.7114548,0.16608343,0.6479492,0.7524414,-3,-1,-3,11,6,-1,2,-1
34.01822006702423,false,-0.32080078,0.4921875,0.78759766,0.7108504,0.16248359,0.4921875,0.78759766,8,-3,-19,-66,14,0,-4,1
34.02088809013367,false,-0.0234375,0.4663086,0.8964844,0.7115854,0.15937121,0.4663086,0.8964844,-4,2,4,-44,-1,1,0,0
34.04822599887848,false,-0.14941406,0.5019531,0.8461914,0.7126128,0.15595081,0.5019531,0.8461914,0,-1,4,28,-5,0,-1,0
34.07855999469757,false,-0.16748047,0.5004883,0.85058594,0.7132233,0.15271585,0.5004883,0.85058594,-1,5,3,-36,3,0,-2,0
34.08031499385834,false,-0.13330078,0.48535156,0.8564453,0.7137791,0.1497874,0.48535156,0.8564453,-8,-2,-1,0,1,2,2,-2
34.108339071273804,false,-0.1616211,0.49072266,0.85302734,0.7143292,0.14704084,0.49072266,0.85302734,0,2,-3,26,-7,-4,0,-1
34.138485074043274,false,-0.16113281,0.50097656,0.8491211,0.71458584,0.14472394,0.50097656,0.8491211,-2,-3,-2,-15,4,-3,-1,-3
34.140223026275635,false,-0.16552734,0.47802734,0.8457031,0.71492296,0.14245968,0.47802734,0.8457031,0,-2,-2,34,2,-2,-2,-1
34.16889810562134,false,-0.1743164,0.4975586,0.8413086,0.7153085,0.14087653,0.4975586,0.8413086,-2,-2,-3,-13,-3,1,-1,-2
34.198193073272705,false,-0.17822266,0.5131836,0.83691406,0.7156604,0.1392257,0.5131836,0.83691406,8,-1,-11,-9,-5,-4,-1,2
34.20108699798584,false,-0.17773438,0.47558594,0.8408203,0.7162082,0.13708912,0.47558594,0.8408203,0,3,11,16,11,4,0,1
34.2283570766449,false,-0.14550781,0.5019531,0.8574219,0.7167861,0.13550754,0.5019531,0.8574219,-4,-1,-4,-19,-5,0,0,-4
34.288013100624084,false,-0.13134766,0.44384766,0.86572266,0.7175035,0.13379563,0.44384766,0.86572266,-2,-7,-11,22,3,-1,1,-2
34.319247007369995,false,-0.15478516,0.44189453,0.87939453,0.7180692,0.13221166,0.44189453,0.87939453,-7,-3,-9,-33,-11,-2,-3,-1
34.34821605682373,false,-0.16601562,0.46679688,0.8652344,0.7190851,0.13092586,0.46679688,0.8652344,1,2,7,18,4,3,2,1
34.37831902503967,false,-0.15771484,0.47070312,0.8691406,0.71910024,0.13098966,0.47070312,0.8691406,1,-2,-1,-1,0,-4,0,1
34.38033604621887,false,-0.16015625,0.4638672,0.87353516,0.71914893,0.13110949,0.4638672,0.87353516,4,2,-3,-29,-14,-9,-4,-1
34.40854203701019,false,-0.15185547,0.47998047,0.8652344,0.7191987,0.13159572,0.47998047,0.8652344,-1,-1,3,-12,3,2,1,0
34.43857407569885,false,-0.15820312,0.4970703,0.85546875,0.719339,0.13184321,0.4970703,0.85546875,3,3,5,-14,-5,-1,0,0
34.441153049468994,false,-0.16357422,0.49072266,0.8618164,0.71962595,0.13159572,0.49072266,0.8618164,-5,-3,-3,-9,11,2,0,-3
34.46828103065491,false,-0.1586914,0.47607422,0.86376953,0.71999705,0.13098624,0.47607422,0.86376953,-2,-5,-6,31,-1,-1,0,-1
34.498438000679016,false,-0.15771484,0.47314453,0.8652344,0.7204008,0.1301385,0.47314453,0.8652344,0,1,11,42,0,2,1,0
34.500532031059265,false,-0.14404297,0.46142578,0.8696289,0.7208477,0.12933753,0.46142578,0.8696289,0,-2,-3,37,-1,-4,0,0
34.52847099304199,false,-0.15673828,0.4658203,0.8725586,0.72116613,0.12854642,0.4658203,0.8725586,4,-4,-14,-98,-9,3,0,-4
34.558221101760864,false,-0.15478516,0.45458984,0.85595703,0.72166955,0.12751144,0.45458984,0.85595703,1,1,1,6,7,-2,-4,1
34.56053304672241,false,-0.13671875,0.45361328,0.88427734,0.7221505,0.12689975,0.45361328,0.88427734,-6,1,2,-2,-1,1,1,-3
34.58829700946808,false,-0.14794922,0.43945312,0.87597656,0.722633,0.12634939,0.43945312,0.87597656,-1,1,7,4,1,1,0,1
34.618298053741455,false,-0.1508789,0.45751953,0.86621094,0.72343594,0.12531336,0.45751953,0.86621094,-1,1,-5,9,-5,-6,-2,0
34.62091600894928,false,-0.15820312,0.45654297,0.8774414,0.72405493,0.12458238,0.45654297,0.8774414,-2,2,5,16,7,4,-1,-1
34.648593068122864,false,-0.14648438,0.4375,0.90185547,0.72459686,0.124031745,0.4375,0.90185547,-2,-5,-2,-15,-1,-1,-2,-2
34.678858041763306,false,-0.14746094,0.44580078,0.8779297,0.72514313,0.123848096,0.44580078,0.8779297,-1,1,2,-43,-11,2,0,-2
34.68099308013916,false,-0.13867188,0.45458984,0.88916016,0.72576046,0.12348304,0.45458984,0.88916016,-3,-2,0,29,7,1,1,-2
34.708720088005066,false,-0.13183594,0.43652344,0.8955078,0.72649527,0.122812,0.43652344,0.8955078,0,-2,0,2,-4,0,1,0
34.7389270067215,false,-0.12548828,0.4326172,0.8959961,0.72721905,0.12213911,0.4326172,0.8959961,-3,-3,-4,36,3,5,4,0
34.741159081459045,false,-0.1274414,0.43310547,0.89453125,0.7279006,0.12128625,0.43310547,0.89453125,-1,-1,3,-2,3,2,0,0
34.76836609840393,false,-0.123535156,0.40234375,0.90234375,0.72855425,0.12006252,0.40234375,0.90234375,1,-1,-2,1,0,-2,-2,-2
34.79830503463745,false,-0.12939453,0.41845703,0.93603516,0.7290925,0.11883994,0.41845703,0.93603516,-1,-1,-12,-9,-3,-8,-5,-1
34.80061709880829,false,-0.13720703,0.40429688,0.90185547,0.7294016,0.11780293,0.40429688,0.90185547,3,1,4,25,8,1,0,2
34.828330993652344,false,-0.13867188,0.40625,0.90527344,0.7296618,0.116889946,0.40625,0.90527344,-1,1,-10,21,0,-6,-5,0
34.85822808742523,false,-0.14501953,0.4038086,0.90234375,0.72989583,0.11609482,0.4038086,0.90234375,-4,-3,-9,1,-1,3,4,-1
34.860504031181335,false,-0.15039062,0.42871094,0.8955078,0.73000735,0.11578795,0.42871094,0.8955078,1,-3,5,39,13,0,-4,-2
34.88835310935974,false,-0.14990234,0.41210938,0.90478516,0.73002964,0.115364216,0.41210938,0.90478516,0,0,5,-30,-7,-2,1,0
34.918371081352234,false,-0.14990234,0.40625,0.89453125,0.7300137,0.115178585,0.40625,0.89453125,-2,0,9,6,2,-2,-1,-1
34.920831084251404,false,-0.14550781,0.40527344,0.89746094,0.7299124,0.11530395,0.40527344,0.89746094,-1,1,4,-5,-8,-5,-2,0
34.948487997055054,false,-0.13964844,0.4165039,0.90185547,0.72978175,0.11566882,0.4165039,0.90185547,1,3,-5,-30,-7,-6,-3,0
34.97891306877136,false,-0.14355469,0.41259766,0.90625,0.7295335,0.1160344,0.41259766,0.90625,-3,-5,0,21,1,1,1,-1
34.981014013290405,false,-0.13476562,0.40478516,0.89697266,0.7292194,0.11676543,0.40478516,0.89697266,-1,-2,0,-14,5,0,0,0
35.00816810131073,false,-0.12792969,0.43701172,0.88427734,0.72886235,0.11792664,0.43701172,0.88427734,-3,-3,-6,-9,-15,-2,-2,-2
35.03837299346924,false,-0.12841797,0.45996094,0.8964844,0.7285961,0.11835033,0.45996094,0.8964844,-2,-2,-1,-47,-17,-4,-3,-1
35.04078507423401,false,-0.12988281,0.38916016,0.89941406,0.7286161,0.11810942,0.38916016,0.89941406,0,0,-7,-15,8,4,1,-2
35.0682110786438,false,-0.13085938,0.43945312,0.8935547,0.72866887,0.11871846,0.43945312,0.8935547,0,-1,-4,-16,-2,-2,-2,0
35.09830605983734,false,-0.12988281,0.42138672,0.9038086,0.7288151,0.11866135,0.42138672,0.9038086,1,-1,-7,3,7,1,0,0
35.10026800632477,false,-0.12158203,0.41210938,0.90234375,0.7290303,0.11877872,0.41210938,0.90234375,0,0,1,-53,-15,-4,1,3
35.12824106216431,false,-0.110839844,0.40185547,0.90527344,0.72922784,0.11872003,0.40185547,0.90527344,3,2,0,27,4,1,0,2
35.1601459980011,false,-0.106933594,0.390625,0.9140625,0.7293652,0.11872252,0.390625,0.9140625,-2,-2,10,12,1,-6,-4,-2
35.16178810596466,false,-0.10498047,0.3930664,0.9165039,0.7294168,0.118843056,0.3930664,0.9165039,-2,-1,-1,8,15,4,2,-3
35.18789803981781,false,-0.10253906,0.41455078,0.9082031,0.72940487,0.11945149,0.41455078,0.9082031,-1,-2,-7,-32,-8,1,1,-1
35.219310998916626,false,-0.10986328,0.4248047,0.9111328,0.72939306,0.11981578,0.4248047,0.9111328,0,2,8,28,6,0,-1,-1
35.221989035606384,false,-0.125,0.43310547,0.89453125,0.7294649,0.1200617,0.43310547,0.89453125,0,0,3,2,-1,-1,-1,1
35.24868607521057,false,-0.12011719,0.43652344,0.88964844,0.72958106,0.11993866,0.43652344,0.88964844,2,-4,-8,-13,-10,-4,-1,-1
35.278645038604736,false,-0.119628906,0.42041016,0.90625,0.7297912,0.119271666,0.42041016,0.90625,-3,-3,-5,8,4,-1,-2,-2
35.2805860042572,false,-0.12109375,0.41308594,0.90283203,0.7300242,0.11865946,0.41308594,0.90283203,1,5,5,5,2,3,3,0
35.308558106422424,false,-0.11669922,0.4267578,0.90625,0.7302012,0.11817015,0.4267578,0.90625,-3,-2,3,46,7,-3,-4,-3
35.33901000022888,false,-0.12597656,0.41748047,0.8959961,0.73045933,0.11750098,0.41748047,0.8959961,-1,2,4,-2,5,4,-2,-2
35.34088599681854,false,-0.12158203,0.4248047,0.89501953,0.73075384,0.11682783,0.4248047,0.89501953,2,1,3,25,5,4,1,0
35.36860108375549,false,-0.119140625,0.4111328,0.9082031,0.7311809,0.115851186,0.4111328,0.9082031,0,-2,-8,-16,-5,-5,-1,-1
35.398659110069275,false,-0.11816406,0.40283203,0.90722656,0.73166084,0.11505637,0.40283203,0.90722656,-1,-7,1,-17,2,-1,-1,-1
35.4012770652771,false,-0.12890625,0.4033203,0.90283203,0.7322195,0.11438642,0.4033203,0.90283203,1,1,-2,-6,-4,-1,-1,0
35.428829073905945,false,-0.13378906,0.40039062,0.90625,0.73276716,0.11359264,0.40039062,0.90625,-3,-1,-3,-6,0,3,2,0
35.45865201950073,false,-0.13134766,0.4116211,0.9003906,0.7333206,0.11292185,0.4116211,0.9003906,-2,-2,5,3,0,-2,-3,-2
35.46116602420807,false,-0.1328125,0.40527344,0.90283203,0.7338795,0.1121298,0.40527344,0.90283203,1,2,3,9,8,2,2,-1
35.4887501001358,false,-0.12695312,0.40820312,0.9057617,0.7343913,0.11139163,0.40820312,0.9057617,0,0,-7,-19,-14,-6,0,1
35.51890408992767,false,-0.13134766,0.4038086,0.9067383,0.73488235,0.110659614,0.4038086,0.9067383,-1,-1,0,33,9,0,-4,-1
35.52227210998535,false,-0.13232422,0.4086914,0.9003906,0.73532885,0.109869,0.4086914,0.9003906,0,-2,10,-5,-3,2,-1,0
35.54830706119537,false,-0.037597656,0.39257812,0.90283203,0.7353194,0.11011174,0.39257812,0.90283203,-2,2,4,14,-3,-3,-1,-2
35.57834208011627,false,-0.13623047,0.3725586,0.9169922,0.73588336,0.10907628,0.3725586,0.9169922,-1,0,0,-14,0,-1,2,0
35.58036208152771,false,-0.13378906,0.38623047,0.9140625,0.73618335,0.1085872,0.38623047,0.9140625,-4,-7,-7,40,14,1,-1,-4
35.60824203491211,false,-0.11328125,0.38134766,0.91845703,0.7366122,0.10803808,0.38134766,0.91845703,-2,1,-1,-10,2,0,-1,-3
35.63844704627991,false,-0.12597656,0.38134766,0.92089844,0.73692477,0.10736774,0.38134766,0.92089844,1,1,-2,-20,-5,-3,-2,-1
35.64069902896881,false,-0.125,0.3671875,0.9272461,0.7372849,0.10663438,0.3671875,0.9272461,-4,-1,3,-22,-12,-8,-4,-1
35.66833007335663,false,-0.16992188,0.3701172,0.9067383,0.7375797,0.105106935,0.3701172,0.9067383,-1,-3,-10,-13,2,0,-1,-1
35.69830906391144,false,-0.091796875,0.36376953,0.9291992,0.7373565,0.104621604,0.36376953,0.9291992,0,-3,-8,-19,2,0,-2,1
35.70144307613373,false,-0.11425781,0.35546875,0.9238281,0.737592,0.10437623,0.35546875,0.9238281,1,1,2,12,2,1,0,1
35.72891700267792,false,-0.11621094,0.36572266,0.92285156,0.7372637,0.10443399,0.36572266,0.92285156,-1,-2,6,7,2,0,-2,-3
35.758748054504395,false,-0.11035156,0.3515625,0.9316406,0.7369181,0.1042538,0.3515625,0.9316406,0,1,1,-19,-4,1,3,-1
35.76171100139618,false,-0.12841797,0.36767578,0.9238281,0.7364675,0.10437257,0.36767578,0.9238281,2,2,-3,-2,-1,2,1,2
35.78926610946655,false,-0.13916016,0.38476562,0.9213867,0.73591965,0.104494855,0.38476562,0.9213867,1,0,-4,13,1,-7,-4,-1
35.81913602352142,false,-0.14794922,0.3955078,0.9003906,0.7353067,0.1048607,0.3955078,0.9003906,-3,-1,-1,-52,-17,-4,0,-2
35.82202708721161,false,-0.15136719,0.39013672,0.9013672,0.73471296,0.10504619,0.39013672,0.9013672,-2,0,2,17,2,-2,-2,-1
35.84905004501343,false,-0.15722656,0.38134766,0.9003906,0.73422664,0.10529063,0.38134766,0.9003906,1,0,2,7,9,3,2,0
35.878308057785034,false,-0.14990234,0.37890625,0.9042969,0.7337349,0.105961554,0.37890625,0.9042969,1,1,-1,-16,-5,-3,-1,-1
35.881025075912476,false,-0.1430664,0.36523438,0.9116211,0.73324174,0.107059516,0.36523438,0.9116211,-2,-6,-11,18,1,-3,-1,-2
35.90899205207825,false,-0.12451172,0.359375,0.9223633,0.7327586,0.10895244,0.359375,0.9223633,-1,3,12,8,4,1,-1,1
35.93847906589508,false,-0.12011719,0.36621094,0.9223633,0.73220897,0.11163806,0.36621094,0.9223633,0,0,-5,-13,-7,1,0,-2
35.96810710430145,false,-0.118652344,0.3828125,0.91748047,0.7314964,0.114998266,0.3828125,0.91748047,-2,-2,-8,-27,3,1,0,-1
35.97015309333801,false,-0.114746094,0.3959961,0.92333984,0.730762,0.1187824,0.3959961,0.92333984,2,-1,-6,11,2,1,0,-1
35.99873208999634,false,-0.103027344,0.34521484,0.9223633,0.73002565,0.12287137,0.34521484,0.9223633,2,-5,-27,-5,3,0,1,3
36.028287053108215,false,-0.13330078,0.40576172,0.91308594,0.72885036,0.12903355,0.40576172,0.91308594,-7,8,66,22,-10,-5,-5,-8
36.03075909614563,false,-0.118652344,0.4423828,0.89208984,0.72752357,0.13617796,0.4423828,0.89208984,-4,0,19,8,3,-2,0,-1
36.05872309207916,false,-0.119140625,0.50878906,0.8647461,0.7260932,0.14538954,0.50878906,0.8647461,-1,-5,-22,15,5,-1,3,1
36.088303089141846,false,-0.13916016,0.62597656,0.85791016,0.7244851,0.15546916,0.62597656,0.85791016,3,0,-4,-1,0,3,1,2
36.09072005748749,false,-0.11816406,0.5517578,0.8696289,0.7232944,0.1630922,0.5517578,0.8696289,-4,1,28,3,3,3,-3,-5
36.11846303939819,false,-0.078125,0.46777344,0.87646484,0.72227836,0.17048283,0.46777344,0.87646484,0,-5,-12,-8,-1,0,-1,-1
36.14807105064392,false,-0.107421875,0.5107422,0.88427734,0.72147965,0.17982057,0.5107422,0.88427734,-1,-1,-11,-6,-8,-2,-6,-3
36.14963102340698,false,-0.09814453,0.62353516,0.890625,0.7200187,0.19154109,0.62353516,0.890625,-3,-3,-6,-8,-3,-7,-1,-1
36.17810809612274,false,-0.055664062,0.74560547,0.9038086,0.7176891,0.20453957,0.74560547,0.9038086,3,1,-6,6,-4,0,-1,0
36.20832407474518,false,-0.036132812,0.6401367,0.86279297,0.71182746,0.2192492,0.6401367,0.86279297,1,-3,-21,-5,17,-2,0,0
36.209879994392395,false,0.0087890625,0.54589844,0.8339844,0.7012863,0.23836043,0.54589844,0.8339844,0,-1,2,4,-3,0,-1,1
36.238468050956726,false,-0.015136719,0.5620117,0.8041992,0.6901177,0.25996915,0.5620117,0.8041992,0,-2,-1,-13,-35,-3,0,1
36.26822900772095,false,0.030761719,0.6347656,0.7270508,0.67763,0.28241703,0.6347656,0.7270508,3,1,2,13,14,3,0,0
36.27053606510162,false,0.06982422,0.75097656,0.6279297,0.66447425,0.30556294,0.75097656,0.6279297,2,1,1,11,27,-1,-2,2
36.29867708683014,false,0.044921875,0.6796875,0.5727539,0.652596,0.32416174,0.6796875,0.5727539,-5,-7,-17,-1,-27,-2,-2,-3
36.328360080718994,false,0.075683594,0.6826172,0.56152344,0.64220667,0.33846936,0.6826172,0.56152344,-3,-1,-2,-6,-6,2,0,0
36.330751061439514,false,0.13134766,0.78564453,0.48828125,0.6359725,0.3492691,0.78564453,0.48828125,-3,0,-5,-8,20,-3,-3,-9
36.35893499851227,false,0.106933594,0.76953125,0.47607422,0.63112193,0.3564557,0.76953125,0.47607422,28,1,-23,-8,18,-2,-2,-1
36.388498067855835,false,0.04638672,0.7988281,0.52685547,0.6274874,0.3607442,0.7988281,0.52685547,-10,-1,8,6,-89,2,3,3
36.3912570476532,false,0.020996094,0.82714844,0.5332031,0.62547594,0.3632485,0.82714844,0.5332031,-5,0,3,-6,4,-1,2,1
36.418381094932556,false,0.051757812,0.78808594,0.5307617,0.62449217,0.36446512,0.78808594,0.5307617,-5,4,3,4,24,-1,-1,0
36.44837009906769,false,0.052734375,0.75634766,0.5439453,0.62399155,0.36476314,0.75634766,0.5439453,-9,-5,-2,-2,20,1,-4,-2
36.450430035591125,false,0.03466797,0.7890625,0.53466797,0.62235594,0.3661743,0.7890625,0.53466797,1,-5,5,-30,-8,5,2,3
36.4783970117569,false,0.017089844,0.85302734,0.51904297,0.6208923,0.36709067,0.85302734,0.51904297,0,3,6,17,-11,1,-2,0
36.50857102870941,false,0.04296875,0.85595703,0.4819336,0.6207597,0.36622992,0.85595703,0.4819336,-3,0,2,10,7,-5,1,-1
36.510518074035645,false,0.020507812,0.8173828,0.5107422,0.6219147,0.36384666,0.8173828,0.5107422,-3,2,-1,-4,-7,-10,0,2
36.53830909729004,false,0.028808594,0.8417969,0.50878906,0.62228036,0.3623814,0.8417969,0.50878906,-2,-5,-3,-5,7,-3,-1,0
36.568276047706604,false,0.0,0.91845703,0.4975586,0.62386185,0.35932633,0.91845703,0.4975586,1,0,-5,-24,-5,-2,1,-1
36.57066607475281,false,-0.025390625,0.89501953,0.5385742,0.6252849,0.3562244,0.89501953,0.5385742,1,1,8,33,26,5,1,1
36.59856903553009,false,-0.015136719,0.90527344,0.5361328,0.62637675,0.3540231,0.90527344,0.5361328,1,1,6,29,2,-10,-1,-7
36.62866508960724,false,-0.013183594,0.8808594,0.5029297,0.62661386,0.35279837,0.8808594,0.5029297,-1,-2,-9,-10,14,4,-2,1
36.631288051605225,false,-0.01171875,0.88134766,0.5258789,0.626478,0.3523023,0.88134766,0.5258789,-5,-3,5,16,6,2,-3,-4
36.65833902359009,false,-0.016601562,0.8754883,0.5053711,0.62618715,0.3523104,0.8754883,0.5053711,1,2,6,13,18,5,0,-2
36.6884640455246,false,-0.022460938,0.8754883,0.50146484,0.62577075,0.3526217,0.8754883,0.50146484,-7,-7,-8,0,-1,12,1,-2
36.69082510471344,false,-0.0107421875,0.9091797,0.4970703,0.6250388,0.35323238,0.9091797,0.4970703,-2,-3,-14,-61,-23,-5,-2,1
36.748231053352356,false,-0.034179688,0.8798828,0.4921875,0.6245646,0.35330138,0.8798828,0.4921875,1,3,6,6,3,-4,-1,1
36.779131054878235,false,-0.026367188,0.87841797,0.4873047,0.62418616,0.35341656,0.87841797,0.4873047,2,-3,-11,-3,-8,-6,-1,0
36.80855202674866,false,-0.033691406,0.8774414,0.4814453,0.6238541,0.35327926,0.8774414,0.4814453,-1,4,4,0,5,3,1,2
36.81061899662018,false,-0.023925781,0.8769531,0.50146484,0.6239999,0.35256025,0.8769531,0.50146484,1,0,4,1,-14,-1,0,-4
36.83864510059357,false,-0.041992188,0.8671875,0.50634766,0.6242361,0.35194537,0.8671875,0.50634766,-4,-3,-10,-17,-14,-3,-3,-4
36.86908304691315,false,-0.024414062,0.8701172,0.50878906,0.6239862,0.35206422,0.8701172,0.50878906,-4,-1,-5,2,-2,-1,-1,-9
36.8721981048584,false,-0.030761719,0.8588867,0.4946289,0.6232593,0.35255566,0.8588867,0.4946289,1,-2,-5,-8,-3,-3,-2,3
36.898537039756775,false,-0.032714844,0.8886719,0.49951172,0.6221483,0.35364732,0.8886719,0.49951172,-4,-6,-10,3,-3,-3,-5,-11
36.92874205112457,false,-0.027832031,0.8754883,0.48535156,0.6209035,0.35513335,0.8754883,0.48535156,1,2,4,11,26,5,4,4
36.93132305145264,false,-0.033203125,0.8720703,0.46923828,0.61966956,0.35659075,0.8720703,0.46923828,1,-3,-9,-12,8,0,0,4
36.95868504047394,false,-0.033203125,0.88134766,0.4560547,0.61841035,0.35800776,0.88134766,0.4560547,1,0,1,7,-5,-3,-1,2
36.98911201953888,false,-0.028320312,0.89453125,0.4609375,0.6174726,0.35915467,0.89453125,0.4609375,0,0,2,17,6,0,2,3
36.991783022880554,false,-0.02734375,0.8769531,0.453125,0.61649454,0.3603136,0.8769531,0.453125,0,0,0,-4,6,2,1,0
37.01870906352997,false,-0.033203125,0.9008789,0.46044922,0.6155106,0.36134696,0.9008789,0.46044922,-4,-2,8,64,2,-2,-1,-1
37.048495054244995,false,-0.04345703,0.8935547,0.47509766,0.6148576,0.36196822,0.8935547,0.47509766,2,3,-1,-49,-14,3,2,4
37.05044507980347,false,-0.026367188,0.8876953,0.4658203,0.6143442,0.36262482,0.8876953,0.4658203,4,4,7,-2,-8,-3,4,-1
37.07830810546875,false,-0.032226562,0.9038086,0.47314453,0.61355966,0.36360675,0.9038086,0.47314453,1,-1,-12,-28,-17,-4,-4,-1
37.10853600502014,false,-0.041992188,0.9057617,0.48095703,0.61247313,0.36495683,0.9057617,0.48095703,-5,-4,-2,9,4,-1,-10,-3
37.138482093811035,false,-0.047851562,0.9604492,0.4814453,0.6114901,0.36647898,0.9604492,0.4814453,-8,-5,-5,-4,2,-2,0,-2
37.140512108802795,false,-0.04638672,0.9560547,0.48242188,0.6107544,0.36824718,0.9560547,0.48242188,-1,-1,-1,-1,10,-2,0,-1
37.168267011642456,false,-0.06298828,0.9916992,0.47509766,0.60867095,0.37220973,0.9916992,0.47509766,1,-2,-3,-11,2,-11,0,0
37.1701180934906,false,-0.061523438,1.0244141,0.4321289,0.6063811,0.3772333,1.0244141,0.4321289,-1,-1,-2,-4,11,9,-3,-3
37.19863200187683,false,-0.025878906,1.125,0.4580078,0.6048325,0.3824685,1.125,0.4580078,-1,0,4,1,-15,-3,0,3
37.228893995285034,false,0.04248047,1.0014648,0.3515625,0.60404867,0.38522142,1.0014648,0.3515625,1,4,12,30,-12,4,6,2
37.23087704181671,false,0.078125,0.81884766,0.4033203,0.6069012,0.38307473,0.81884766,0.4033203,-3,-1,-1,14,0,3,0,-1
37.258395075798035,false,0.028808594,0.78271484,0.4741211,0.60702854,0.38338324,0.78271484,0.4741211,2,-4,-7,-11,3,2,-3,-2
37.28837502002716,false,0.023925781,0.9057617,0.4580078,0.6036649,0.38814005,0.9057617,0.4580078,3,0,-4,-13,-3,-3,-2,-2
37.290786027908325,false,0.07421875,1.012207,0.42919922,0.5999583,0.39352235,1.012207,0.42919922,-4,-2,-4,-14,-6,5,-1,-1
37.31835401058197,false,0.088378906,0.9902344,0.40673828,0.5982597,0.39578778,0.9902344,0.40673828,-2,-1,0,-2,4,-6,-1,-1
37.34821605682373,false,0.107421875,0.8701172,0.39013672,0.59879977,0.39382836,0.8701172,0.39013672,2,0,-4,-7,1,1,-3,1
37.35048806667328,false,0.12890625,0.7783203,0.41503906,0.5999502,0.3900378,0.7783203,0.41503906,0,-1,-4,-2,0,-6,-1,-1
37.37826609611511,false,0.107421875,0.7792969,0.47314453,0.60037774,0.3864367,0.7792969,0.47314453,-5,-2,0,-4,-6,1,1,0
37.408608078956604,false,0.095703125,0.8173828,0.50878906,0.60067004,0.3836817,0.8173828,0.50878906,-1,0,-4,-21,-6,-3,-1,0
37.410662055015564,false,0.13085938,0.85302734,0.51123047,0.60117805,0.38094753,0.85302734,0.51123047,1,1,2,8,-3,0,-1,-2
37.438650012016296,false,0.13916016,0.7915039,0.5253906,0.6025621,0.37702858,0.7915039,0.5253906,1,-2,-9,14,6,1,-1,-2
37.469130992889404,false,0.140625,0.7758789,0.52246094,0.6036581,0.37269324,0.7758789,0.52246094,0,-1,-3,-20,5,-2,-1,0
37.47215402126312,false,0.1484375,0.7426758,0.52685547,0.60421133,0.36775163,0.7426758,0.52685547,-1,-2,3,9,3,-1,-3,-3
37.498247027397156,false,0.14257812,0.75439453,0.56396484,0.60495836,0.36110723,0.75439453,0.56396484,-1,-7,0,-5,4,-2,0,-1
37.52833306789398,false,0.13574219,0.8232422,0.61279297,0.6059131,0.35383078,0.8232422,0.61279297,-1,-1,-7,40,4,0,0,0
37.53052806854248,false,0.16113281,0.8305664,0.6069336,0.60769045,0.34480146,0.8305664,0.6069336,-3,3,-5,-6,14,-1,0,1
37.55845105648041,false,0.1899414,0.8256836,0.61572266,0.6106909,0.33150047,0.8256836,0.61572266,2,2,3,-8,-3,2,-1,0
37.58849501609802,false,0.1772461,0.7895508,0.66503906,0.61460096,0.3142284,0.7895508,0.66503906,0,-5,-14,-11,1,-5,0,0
37.59049201011658,false,0.15917969,0.70214844,0.703125,0.6191624,0.29383358,0.70214844,0.703125,-1,0,5,-6,-7,1,0,0
37.61823606491089,false,0.14501953,0.63964844,0.7416992,0.6240014,0.27101302,0.63964844,0.7416992,0,0,5,-5,3,-8,-1,-1
37.64860200881958,false,0.13183594,0.5732422,0.7944336,0.629513,0.24513957,0.5732422,0.7944336,-3,-1,10,-11,-3,7,-2,-1
37.65048801898956,false,0.1303711,0.4975586,0.8286133,0.63528657,0.21796775,0.4975586,0.8286133,-2,2,3,-11,-16,-4,-7,-3
37.678309082984924,false,0.15234375,0.43310547,0.8769531,0.6405465,0.19013745,0.43310547,0.8769531,1,-2,-1,-1,6,-2,0,-1
37.70857810974121,false,0.10644531,0.3408203,0.93310547,0.64458734,0.16267285,0.3408203,0.93310547,3,0,-2,5,-1,13,0,2
37.710376024246216,false,0.06640625,0.26416016,0.9760742,0.6474784,0.13721073,0.26416016,0.9760742,-6,5,4,6,0,-19,-4,-4
37.73883306980133,false,0.060546875,0.21679688,0.97802734,0.649063,0.114748776,0.21679688,0.97802734,-13,-8,7,10,-26,-12,-7,-14
37.76921010017395,false,0.075683594,0.12841797,0.94433594,0.6495721,0.09479284,0.12841797,0.94433594,0,-6,-13,8,24,18,12,2
37.77198302745819,false,0.09765625,0.08203125,0.97998047,0.64969903,0.07635978,0.08203125,0.97998047,14,7,20,-6,-1,-58,-41,-3
37.79853904247284,false,0.08496094,0.06689453,0.9716797,0.64949733,0.059023015,0.06689453,0.9716797,-1,-5,-16,5,8,17,11,4
37.82868003845215,false,0.028320312,0.052734375,1.0180664,0.64912724,0.04284789,0.052734375,1.0180664,25,11,14,-13,-11,-46,-29,10
37.83173108100891,false,-0.009765625,-0.020507812,1.0102539,0.64811015,0.027467467,-0.020507812,1.0102539,-3,-4,-1,3,25,31,18,4
37.8585410118103,false,0.009277344,-0.055664062,0.98828125,0.6469368,0.013550331,-0.055664062,0.98828125,-14,-9,-3,19,-7,7,9,-8
37.88830900192261,false,0.016113281,-0.083496094,0.98095703,0.6459711,0.0010376555,-0.083496094,0.98095703,-4,-5,-16,-22,1,27,12,0
37.91843402385712,false,-0.021484375,-0.076171875,0.9921875,0.6447926,-0.010315217,-0.076171875,0.9921875,-4,1,4,7,4,12,9,1
37.92095601558685,false,-0.07421875,-0.051757812,0.9995117,0.6436355,-0.020752592,-0.051757812,0.9995117,3,-2,-3,8,4,4,-4,1
37.948318004608154,false,-0.06640625,-0.060546875,0.9609375,0.6426644,-0.030823963,-0.060546875,0.9609375,0,-1,-8,1,5,1,1,0
37.950600028038025,false,-0.048828125,-0.09863281,0.95996094,0.6422241,-0.040467076,-0.09863281,0.95996094,-8,-8,-12,-6,-10,10,8,-4
37.978291034698486,false,-0.05517578,-0.10595703,0.9482422,0.6419773,-0.048767816,-0.10595703,0.9482422,-1,-3,-8,4,-6,7,7,1
38.008650064468384,false,-0.080078125,-0.08203125,0.94921875,0.6419211,-0.055787385,-0.08203125,0.94921875,1,3,0,4,-5,2,5,1
38.01113307476044,false,-0.09765625,-0.067871094,0.9404297,0.64198995,-0.062258013,-0.067871094,0.9404297,4,2,-3,-1,3,-2,-1,-1
38.03878402709961,false,-0.09814453,-0.091308594,0.9560547,0.6424064,-0.068421625,-0.091308594,0.9560547,-8,-1,6,-3,-2,5,-2,-6
38.068536043167114,false,-0.10058594,-0.110839844,0.9550781,0.642966,-0.07385502,-0.110839844,0.9550781,-1,3,3,3,-6,-11,-4,1
38.07070207595825,false,-0.1274414,-0.103027344,0.95703125,0.6437531,-0.07800479,-0.103027344,0.95703125,-6,-8,-7,7,9,-10,-3,-6
38.0983430147171,false,-0.13769531,-0.10546875,0.95703125,0.64490896,-0.08068992,-0.10546875,0.95703125,5,2,-1,-10,1,-2,-3,2
38.12833607196808,false,-0.125,-0.11767578,0.9716797,0.64657634,-0.08172998,-0.11767578,0.9716797,-9,0,3,-3,-23,1,2,-7
38.13057601451874,false,-0.1274414,-0.10644531,0.96875,0.64871293,-0.080875486,-0.10644531,0.96875,0,2,2,0,-1,4,2,0
38.16083204746246,false,-0.1303711,-0.10107422,0.97998047,0.6515033,-0.07818772,-0.10107422,0.97998047,2,1,4,-7,12,-6,-5,0
38.18836200237274,false,-0.12207031,-0.12158203,0.9902344,0.6549599,-0.07355328,-0.12158203,0.9902344,5,5,7,-6,5,-2,-2,3
38.1901251077652,false,-0.111816406,-0.109375,0.9868164,0.6592582,-0.06628593,-0.109375,0.9868164,0,1,2,11,3,-3,-1,-1
38.218250036239624,false,-0.11767578,-0.08984375,0.9711914,0.6644524,-0.05645953,-0.08984375,0.9711914,0,0,-1,1,4,2,-3,0
38.24834907054901,false,-0.10839844,-0.060058594,0.9658203,0.67030567,-0.043824393,-0.060058594,0.9658203,1,-1,-5,-8,1,-1,-3,0
38.25041103363037,false,-0.100097656,-0.038085938,0.9951172,0.67648584,-0.027284054,-0.038085938,0.9951172,-2,-2,0,-11,-3,-3,0,-2
38.278340101242065,false,-0.080566406,-0.0107421875,0.99365234,0.68229985,-0.006348111,-0.0107421875,0.99365234,0,-9,-4,-9,-18,-3,-1,-1
38.30847907066345,false,-0.061035156,0.045898438,0.97998047,0.68727684,0.018921476,0.045898438,0.97998047,0,0,0,-13,-3,7,-2,1
38.31052803993225,false,-0.04248047,0.15234375,0.9584961,0.69082636,0.047304332,0.15234375,0.9584961,4,6,5,-27,-9,-1,2,3
38.338667035102844,false,-0.032714844,0.25048828,0.93896484,0.69241685,0.07818987,0.25048828,0.93896484,2,3,-5,0,8,0,0,-1
38.36913502216339,false,-0.023925781,0.31445312,0.94677734,0.69169515,0.111091174,0.31445312,0.94677734,-4,-1,0,5,-2,-10,-4,-2
38.372058033943176,false,0.0034179688,0.37646484,0.9121094,0.6885768,0.14698103,0.37646484,0.9121094,-2,-1,0,12,11,1,0,-1
38.398619055747986,false,0.053710938,0.4716797,0.8881836,0.68263865,0.18659034,0.4716797,0.8881836,-2,-1,3,16,4,-1,-1,-3
38.42858910560608,false,0.09765625,0.5595703,0.82666016,0.6736797,0.22779493,0.5595703,0.82666016,1,3,2,13,-3,-2,-2,-2
38.43066108226776,false,0.106933594,0.6323242,0.7949219,0.6623115,0.26880655,0.6323242,0.7949219,-4,-6,-3,-7,7,-4,-7,-6
38.45952010154724,false,0.14501953,0.6738281,0.7446289,0.64995205,0.30861735,0.6738281,0.7446289,11,1,6,-48,-11,1,2,2
38.489098072052,false,0.19433594,0.7241211,0.66015625,0.63731354,0.3457278,0.7241211,0.66015625,-5,1,6,33,9,-2,-6,-2
38.49100708961487,false,0.21582031,0.76123047,0.5751953,0.6254587,0.37880322,0.76123047,0.5751953,-6,-1,1,2,4,-3,-2,-1
38.518277049064636,false,0.25146484,0.8232422,0.5292969,0.6148364,0.4075511,0.8232422,0.5292969,7,-4,-8,18,0,-1,-1,-1
38.54827606678009,false,0.26757812,0.7939453,0.47802734,0.60617054,0.43141812,0.7939453,0.47802734,-3,0,1,-15,-14,4,2,2
38.550379037857056,false,0.27734375,0.77197266,0.44628906,0.59970444,0.45156372,0.77197266,0.44628906,-5,-9,-22,-9,-15,-6,-13,-6
38.57828199863434,false,0.28564453,0.7631836,0.42285156,0.5947769,0.4703157,0.7631836,0.42285156,20,7,6,-13,-4,-1,14,6
38.60870599746704,false,0.2734375,0.7739258,0.37158203,0.590629,0.48887426,0.7739258,0.37158203,-8,1,8,18,-4,-9,-1,-3
38.61041808128357,false,0.29589844,0.8125,0.3022461,0.5860272,0.5087529,0.8125,0.3022461,-7,-3,-3,-5,33,2,2,-5
38.63834309577942,false,0.3100586,0.88378906,0.16064453,0.57948786,0.5302308,0.88378906,0.16064453,-5,-4,-5,17,-11,-4,4,6
38.668684005737305,false,0.22509766,0.9760742,0.09375,0.5708897,0.55105233,0.9760742,0.09375,4,3,-2,17,6,15,6,6
38.6704980134964,false,0.123535156,1.0063477,0.03466797,0.56247973,0.56949925,1.0063477,0.03466797,-4,-2,-9,-10,3,-1,-5,-4
38.698680996894836,false,0.14257812,1.0820312,-0.03173828,0.55415845,0.58595896,1.0820312,-0.03173828,-4,-4,-14,-17,-23,-1,4,-10
38.72867500782013,false,0.19970703,1.0888672,-0.05859375,0.54673487,0.59965646,1.0888672,-0.05859375,-4,-4,-14,-10,-14,5,-5,0
38.731094002723694,false,0.20996094,1.0297852,-0.08642578,0.53957546,0.61208856,1.0297852,-0.08642578,-3,2,8,8,5,12,-7,-3
38.75853204727173,false,0.20703125,0.9736328,-0.056152344,0.5331799,0.622969,0.9736328,-0.056152344,7,2,12,-4,-21,-18,12,13
38.78852701187134,false,0.17773438,0.9633789,-0.08251953,0.5264178,0.633911,0.9633789,-0.08251953,-4,-2,2,15,14,-12,-7,-2
38.79079210758209,false,0.18603516,1.0058594,-0.11669922,0.5187763,0.6451285,1.0058594,-0.11669922,5,2,6,-4,4,3,-4,-2
38.818353056907654,false,0.18115234,1.003418,-0.16357422,0.5108162,0.6557173,1.003418,-0.16357422,2,1,14,29,25,-2,1,-3
38.84843111038208,false,0.16845703,0.9760742,-0.1538086,0.50333583,0.66564125,0.9760742,-0.1538086,-7,-6,-4,-4,-3,-22,8,-26
38.85053300857544,false,0.17675781,0.95214844,-0.1875,0.49605536,0.6753238,0.95214844,-0.1875,2,1,-7,-22,-8,-18,-15,17
38.87832701206207,false,0.21435547,0.94091797,-0.18310547,0.4886178,0.6842481,0.94091797,-0.18310547,-5,0,6,12,-34,-4,-14,4
38.90836203098297,false,0.19921875,0.9794922,-0.19335938,0.48177192,0.6922915,0.9794922,-0.19335938,-9,-4,-6,-21,24,17,-2,-2
38.91037607192993,false,0.19677734,1.0039062,-0.19726562,0.47586167,0.69957036,1.0039062,-0.19726562,-7,-11,-15,-9,17,38,-10,-15
38.93872904777527,false,0.2163086,0.92529297,-0.21044922,0.47072473,0.70596504,0.92529297,-0.21044922,-2,4,17,51,-2,0,21,7
38.9697231054306,false,0.2133789,0.9213867,-0.22070312,0.46596965,0.71183366,0.9213867,-0.22070312,2,3,17,33,-1,1,-3,-10
38.97187900543213,false,0.22216797,0.953125,-0.19384766,0.4622973,0.7167012,0.953125,-0.19384766,7,7,10,-16,6,-30,-8,1
38.99858009815216,false,0.22998047,0.9472656,-0.2241211,0.45926526,0.72118807,0.9472656,-0.2241211,-2,-10,-24,-13,10,-29,2,2
39.02990102767944,false,0.20751953,0.94140625,-0.24951172,0.45644712,0.7253224,0.94140625,-0.24951172,16,8,-11,-30,-46,20,14,11
39.03159308433533,false,0.18896484,0.9326172,-0.2680664,0.4540604,0.72909683,0.9326172,-0.2680664,-3,1,13,67,-2,-1,42,8
39.058486104011536,false,0.1875,0.9316406,-0.27392578,0.45254734,0.7320475,0.9316406,-0.27392578,-7,-9,-16,-31,-14,0,-23,-8
39.0886150598526,false,0.18164062,0.93652344,-0.2861328,0.45156994,0.73473203,0.93652344,-0.2861328,-3,0,12,60,53,17,27,-1
39.09093201160431,false,0.17578125,0.92285156,-0.30371094,0.45047462,0.7374233,0.92285156,-0.30371094,3,-5,-27,-59,-3,14,19,3
39.118359088897705,false,0.18945312,0.921875,-0.3149414,0.44893327,0.73990065,0.921875,-0.3149414,-10,-4,-5,0,7,-15,-26,-6
39.14854300022125,false,0.21044922,0.9736328,-0.32714844,0.4482642,0.74155253,0.9736328,-0.32714844,-9,-5,2,23,10,-5,-20,-20
39.150275111198425,false,0.20410156,0.9897461,-0.33935547,0.44893363,0.74215966,0.9897461,-0.33935547,-1,-1,-3,-33,-10,3,-40,-1
39.178147077560425,false,0.22705078,1.0151367,-0.40576172,0.44881827,0.74302524,1.0151367,-0.40576172,-1,-3,-13,-62,-19,-15,-10,2
39.20843207836151,false,0.28125,1.0820312,-0.45458984,0.44740337,0.74422777,1.0820312,-0.45458984,-4,-3,-13,-32,26,9,-1,0
39.23820900917053,false,0.27392578,1.0166016,-0.39160156,0.44626057,0.7451105,1.0166016,-0.39160156,5,0,-10,4,-36,-12,-12,7
39.23977208137512,false,0.20458984,0.94677734,-0.3149414,0.44613078,0.7453418,0.94677734,-0.3149414,4,8,17,48,35,7,9,7
39.268373012542725,false,0.21972656,0.9121094,-0.3383789,0.44516468,0.7460308,0.9121094,-0.3383789,-1,0,4,-1,-24,-7,32,-3
39.271010994911194,false,0.1928711,0.9272461,-0.3779297,0.44332165,0.7471096,0.9272461,-0.3779297,4,5,12,-20,12,14,15,12
39.29869902133942,false,0.19873047,0.89697266,-0.37597656,0.44136754,0.74826777,0.89697266,-0.37597656,0,0,4,34,-17,-2,-10,-2
39.328787088394165,false,0.20361328,0.87109375,-0.38378906,0.43972406,0.7493743,0.87109375,-0.38378906,-4,-5,-9,7,10,-4,-5,0
39.332011103630066,false,0.2109375,0.8598633,-0.3984375,0.4380227,0.7503641,0.8598633,-0.3984375,3,2,-1,-76,24,-5,-16,-2
39.359153032302856,false,0.20166016,0.87109375,-0.42138672,0.43612337,0.7513896,0.87109375,-0.42138672,-7,-5,-1,13,6,10,-4,-15
39.38845205307007,false,0.21191406,0.8833008,-0.4189453,0.43385842,0.752477,0.8833008,-0.4189453,-3,-3,-6,-39,48,-10,20,-18
39.390624046325684,false,0.23095703,0.88378906,-0.41259766,0.4319001,0.75332266,0.88378906,-0.41259766,3,0,-4,13,-19,-1,-19,3
39.41844701766968,false,0.25341797,0.8828125,-0.41796875,0.43019685,0.7540653,0.8828125,-0.41796875,0,-3,-11,-51,5,19,36,13
39.448352098464966,false,0.24511719,0.8774414,-0.41503906,0.4288543,0.75443196,0.8774414,-0.41503906,-1,-2,0,23,-24,-8,-2,0
39.45059299468994,false,0.2319336,0.8779297,-0.40625,0.42805666,0.75454676,0.8779297,-0.40625,3,6,13,21,-10,-4,-11,2
39.47811710834503,false,0.23583984,0.8588867,-0.41064453,0.42756313,0.75465965,0.8588867,-0.41064453,-1,-1,2,3,-25,-14,0,6
39.48031306266785,false,0.24414062,0.87158203,-0.4038086,0.42678192,0.75486445,0.87158203,-0.4038086,-2,0,5,14,-2,6,5,1
39.509305000305176,false,0.24316406,0.8808594,-0.3857422,0.42617112,0.7549248,0.8808594,-0.3857422,1,3,9,28,26,17,33,-6
39.53847110271454,false,0.2368164,0.8925781,-0.3852539,0.4260463,0.7547978,0.8925781,-0.3852539,-1,-4,-3,14,-14,-21,2,-2
39.54104006290436,false,0.2290039,0.9003906,-0.3876953,0.42641395,0.7546172,0.9003906,-0.3876953,-5,-4,8,72,5,-13,-8,-3
39.56929004192352,false,0.24560547,0.8720703,-0.38916016,0.42659366,0.7544891,0.8720703,-0.38916016,5,4,9,-12,-7,2,-4,8
39.59848999977112,false,0.23925781,0.8881836,-0.3881836,0.42629686,0.754565,0.8881836,-0.3881836,1,-1,-7,-41,-11,2,11,0
39.60063910484314,false,0.2368164,0.9213867,-0.390625,0.42617738,0.7546306,0.9213867,-0.390625,5,2,3,-5,0,-7,-13,-5
39.62945902347565,false,0.23876953,0.92822266,-0.3955078,0.42708045,0.75424224,0.92822266,-0.3955078,2,-5,-10,-11,-13,-2,-7,5
39.6590530872345,false,0.24072266,0.9038086,-0.40625,0.42795384,0.7537872,0.9038086,-0.40625,-2,2,-1,-6,-6,-8,3,4
39.66152906417847,false,0.22998047,0.9326172,-0.4140625,0.42904663,0.7531664,0.9326172,-0.4140625,-10,-2,-8,-3,11,17,3,1
39.68916702270508,false,0.2319336,0.95947266,-0.41357422,0.43031535,0.752472,0.95947266,-0.41357422,5,1,2,13,0,-4,-5,-4
39.718798995018005,false,0.23876953,0.9785156,-0.44091797,0.43209863,0.75127417,0.9785156,-0.44091797,12,3,-13,-15,-16,0,4,0
39.72212207317352,false,0.24072266,0.9980469,-0.45263672,0.435019,0.74942654,0.9980469,-0.45263672,-12,-5,-33,-61,-12,1,-5,-4
39.74929106235504,false,0.2421875,1.0239258,-0.4736328,0.4395472,0.7465161,1.0239258,-0.4736328,-10,-1,33,22,20,-13,-5,-5
39.778969049453735,false,0.25097656,1.0214844,-0.4794922,0.44741526,0.7410735,1.0214844,-0.4794922,11,3,-2,0,15,-4,2,3
39.78163802623749,false,0.23632812,0.9897461,-0.43945312,0.46079174,0.7314436,0.9897461,-0.43945312,-2,-2,-7,-40,-10,-4,-2,-1
39.809110045433044,false,0.25,0.9589844,-0.3486328,0.47911292,0.71747905,0.9589844,-0.3486328,-22,-3,2,86,19,0,-2,-3
39.838431000709534,false,0.29003906,0.71972656,-0.3388672,0.50075585,0.69845796,0.71972656,-0.3388672,-2,2,20,69,-4,1,1,-1
39.84102201461792,false,0.2836914,0.7241211,-0.1303711,0.5242712,0.6770539,0.7241211,-0.1303711,8,-1,-2,-55,-19,-5,-4,-2
39.86966001987457,false,0.29736328,0.7885742,-0.033203125,0.54324514,0.65750974,0.7885742,-0.033203125,-1,-3,8,33,3,-3,-3,-2
39.89827609062195,false,0.31298828,0.8510742,0.060058594,0.5570393,0.6406013,0.8510742,0.060058594,-1,1,6,-16,0,-1,0,-2
39.90154802799225,false,0.30664062,0.9370117,0.125,0.56582505,0.6277789,0.9370117,0.125,9,-8,-17,-40,-10,-1,-2,-2
39.929092049598694,false,0.32226562,0.8774414,0.13476562,0.57187164,0.6171013,0.8774414,0.13476562,-6,-7,-13,-20,-10,-2,-2,-2
39.95841109752655,false,0.32714844,0.8432617,0.14697266,0.5758936,0.6081217,0.8432617,0.14697266,-3,4,1,25,1,-3,-1,-2
