time,gesture,ax,ay,az,qw,qx,qy,qz,e0,e1,e2,e3,e4,e5,e6,e7
11.387410998344421,false,0.23925781,0.21289062,0.9511719,0.36162335,-0.07653598,0.21289062,0.9511719,-6,-2,0,-1,1,11,-41,-1
11.388834953308105,false,0.24609375,0.203125,0.95458984,0.36113197,-0.07641326,0.203125,0.95458984,1,1,1,2,3,-2,30,27
11.38980495929718,false,0.24707031,0.21386719,0.94384766,0.36095253,-0.07623093,0.21386719,0.94384766,3,2,-1,-1,2,11,27,8
11.391228914260864,false,0.2553711,0.20800781,0.9399414,0.3607071,-0.07635272,0.20800781,0.9399414,-3,-7,-4,-3,-6,0,-8,-15
11.392412900924683,false,0.24804688,0.20996094,0.9453125,0.36047152,-0.07623246,0.20996094,0.9453125,5,7,3,1,-2,0,52,20
11.404942989349365,false,0.25,0.2055664,0.94970703,0.36021236,-0.07622928,0.2055664,0.94970703,2,-1,-2,-1,0,-8,-35,-7
11.406937956809998,false,0.2475586,0.20996094,0.9472656,0.35997823,-0.07617037,0.20996094,0.9472656,-6,-6,-1,-3,1,29,26,7
11.43521499633789,false,0.24804688,0.20703125,0.9477539,0.35980198,-0.07604975,0.20703125,0.9477539,4,1,-2,-3,-6,-3,-36,-13
11.465736985206604,false,0.24804688,0.2006836,0.9482422,0.35980198,-0.07604975,0.2006836,0.9482422,-2,-6,0,2,-4,-11,34,5
11.467950940132141,false,0.24707031,0.19873047,0.95214844,0.3597961,-0.07598747,0.19873047,0.95214844,-1,-3,-2,-1,-2,-7,-3,12
11.495346903800964,false,0.24853516,0.203125,0.9472656,0.3597841,-0.07580184,0.203125,0.9472656,-4,-1,1,1,9,33,107,-7
11.525494933128357,false,0.2421875,0.20507812,0.94091797,0.35979375,-0.075681806,0.20507812,0.94091797,4,3,-3,0,-1,-1,-38,-5
11.527653932571411,false,0.25048828,0.20117188,0.9448242,0.3598426,-0.07555718,0.20117188,0.9448242,0,-4,1,-1,-3,-26,-46,9
11.555335998535156,false,0.24169922,0.20214844,0.9501953,0.3599666,-0.07525243,0.20214844,0.9501953,2,3,-1,-2,-3,5,-40,1
11.585446953773499,false,0.24414062,0.20361328,0.9501953,0.3601044,-0.074950546,0.20361328,0.9501953,-4,0,-1,-2,0,-3,26,-14
11.587804913520813,false,0.23730469,0.22314453,0.9477539,0.36010498,-0.074462384,0.22314453,0.9477539,0,0,-1,-2,-1,-5,-20,4
11.645484924316406,false,0.2319336,0.20361328,0.94384766,0.35990852,-0.07391033,0.20361328,0.94384766,1,3,1,-1,3,1,11,21
11.64783799648285,false,0.26464844,0.14892578,0.99658203,0.36028886,-0.072997704,0.14892578,0.99658203,-4,-2,1,0,-2,8,-31,-14
11.649457931518555,false,0.25976562,0.18261719,0.9970703,0.36107597,-0.07171472,0.18261719,0.9970703,-1,-3,0,-1,-8,-3,-3,1
11.675472974777222,false,0.2368164,0.30371094,0.9760742,0.36131236,-0.07079769,0.30371094,0.9760742,-2,-3,-1,-1,10,-3,-17,-7
11.706004977226257,false,0.25878906,0.24023438,0.96240234,0.36181682,-0.07183846,0.24023438,0.96240234,-1,-1,-4,-3,-7,1,10,4
11.70745599269867,false,0.26416016,0.20654297,0.9482422,0.3625401,-0.07391179,0.20654297,0.9482422,2,2,2,1,-5,-3,-2,-2
11.735560894012451,false,0.24804688,0.22753906,0.9277344,0.36346322,-0.07586646,0.22753906,0.9277344,-2,-2,14,18,29,-2,-4,-3
11.765676975250244,false,0.26416016,0.22851562,0.8886719,0.3651055,-0.07806251,0.22851562,0.8886719,0,1,-29,-18,-2,11,3,3
11.767849922180176,false,0.2758789,0.3251953,0.74853516,0.3662597,-0.079770274,0.3251953,0.74853516,-1,-6,6,0,-18,-7,-6,-2
11.795257925987244,false,0.3305664,0.30126953,0.7973633,0.36828354,-0.08080998,0.30126953,0.7973633,1,10,14,8,6,0,3,2
11.825607895851135,false,0.2524414,0.27246094,0.90722656,0.36974552,-0.080565214,0.27246094,0.90722656,0,2,-9,-2,10,19,2,-1
11.827650904655457,false,0.3149414,0.26513672,0.88623047,0.37205794,-0.08208956,0.26513672,0.88623047,-2,-1,8,20,-17,1,-3,-1
11.855268955230713,false,0.29296875,0.21289062,0.9169922,0.37512356,-0.08239779,0.21289062,0.9169922,-2,-1,-5,-3,-13,-35,-4,-4
11.886079907417297,false,0.22851562,0.2006836,0.94140625,0.37907544,-0.079892084,0.2006836,0.94140625,1,2,9,5,11,9,1,1
11.888799905776978,false,0.28027344,0.2529297,0.9213867,0.38487658,-0.07610864,0.2529297,0.9213867,-1,-5,-6,-11,-10,-3,0,-2
11.915629982948303,false,0.29638672,0.33154297,0.92333984,0.3927471,-0.07116443,0.33154297,0.92333984,-2,-4,-6,-2,-6,-3,-1,1
11.945318937301636,false,0.27734375,0.29101562,0.94384766,0.40226918,-0.06689228,0.29101562,0.94384766,-1,-1,6,2,-14,7,-1,-3
11.976159930229187,false,0.27929688,0.24707031,0.97265625,0.41271308,-0.06317037,0.24707031,0.97265625,0,0,-2,10,26,7,3,7
11.978144884109497,false,0.27685547,0.17480469,0.95458984,0.423393,-0.060240578,0.17480469,0.95458984,0,3,0,-10,8,-2,0,-3
12.005286931991577,false,0.2783203,0.13720703,0.94433594,0.4340048,-0.056943677,0.13720703,0.94433594,0,-2,4,0,-14,-1,0,-1
12.007466912269592,false,0.24853516,0.13427734,0.9458008,0.44438437,-0.05254978,0.13427734,0.9458008,2,4,0,-9,-12,-4,0,1
12.035309910774231,false,0.22558594,0.18066406,0.9448242,0.4544628,-0.046691384,0.18066406,0.9448242,-7,-2,-6,-9,-20,3,-10,2
12.065537929534912,false,0.20947266,0.23339844,0.93066406,0.4636813,-0.040893313,0.23339844,0.93066406,2,2,-2,2,5,-20,1,-2
12.067807912826538,false,0.18164062,0.25195312,0.94091797,0.47204983,-0.036011044,0.25195312,0.94091797,-1,-2,-5,-21,-19,-15,-7,-6
12.09573495388031,false,0.15625,0.20410156,0.9550781,0.48001322,-0.03240776,0.20410156,0.9550781,-4,-5,-7,1,35,3,3,-3
12.126122951507568,false,0.15576172,0.18164062,0.95996094,0.48740998,-0.028929668,0.18164062,0.95996094,0,-2,1,0,-5,6,7,9
12.128495931625366,false,0.14111328,0.22705078,0.9848633,0.49438888,-0.02478048,0.22705078,0.9848633,2,0,-1,28,7,9,-10,-3
12.155837893486023,false,0.12451172,0.2211914,0.9682617,0.5006029,-0.021361986,0.2211914,0.9682617,0,0,-7,-17,-47,-5,13,-2
12.186400890350342,false,0.1015625,0.1665039,0.99609375,0.50633144,-0.018187894,0.1665039,0.99609375,0,-3,-10,0,26,-1,-5,-4
12.187870979309082,false,0.09423828,0.1821289,1.0268555,0.5116693,-0.0140384035,0.1821289,1.0268555,-6,-8,-6,-9,-31,-14,-12,-10
12.215425968170166,false,0.099121094,0.24609375,1.0195312,0.5161594,-0.009948444,0.24609375,1.0195312,-3,-8,-1,-1,-5,9,9,-2
12.245356917381287,false,0.10595703,0.26708984,1.0258789,0.5199458,-0.00732404,0.26708984,1.0258789,-2,-1,7,6,25,-6,-2,0
12.247886896133423,false,0.103027344,0.22607422,0.99658203,0.52312464,-0.005981358,0.22607422,0.99658203,0,-1,-4,-4,-9,4,-1,-2
12.276009917259216,false,0.109375,0.1796875,0.9794922,0.52576464,-0.0051270295,0.1796875,0.9794922,0,3,22,1,8,1,-6,1
12.305792927742004,false,0.12207031,0.2006836,0.95214844,0.52777237,-0.003479013,0.2006836,0.95214844,5,9,-7,-11,-4,1,-10,-2
12.3351548910141,false,0.12158203,0.2548828,0.94091797,0.52941525,-0.000671382,0.2548828,0.94091797,1,4,1,15,22,7,7,12
12.336769938468933,false,0.12548828,0.2890625,0.9555664,0.5309215,0.0015868444,0.2890625,0.9555664,-2,-4,3,3,-2,-3,-4,-4
12.365517973899841,false,0.12695312,0.26708984,0.94140625,0.5320355,0.0025634384,0.26708984,0.94140625,1,2,-1,-3,-6,2,4,0
12.397299885749817,false,0.13378906,0.23339844,0.9394531,0.5331989,0.0032348374,0.23339844,0.9394531,-4,-7,-6,-11,4,-7,-7,-1
12.398369908332825,false,0.13671875,0.22802734,0.94677734,0.53423786,0.0043945075,0.22802734,0.94677734,1,-1,-5,-4,-2,2,5,-2
12.425204992294312,false,0.14550781,0.24169922,0.9350586,0.53483695,0.005676119,0.24169922,0.9350586,-3,-4,-9,3,-2,1,3,-1
12.42815899848938,false,0.14453125,0.24658203,0.9213867,0.5353875,0.007018874,0.24658203,0.9213867,4,2,5,-4,9,-27,-5,4
12.456132888793945,false,0.15576172,0.26123047,0.94091797,0.53551793,0.00842278,0.26123047,0.94091797,0,2,-1,-4,-18,10,-2,-5
12.485397934913635,false,0.10205078,0.25830078,0.94433594,0.5358293,0.009826691,0.25830078,0.94433594,0,1,1,9,3,3,9,3
12.487960934638977,false,0.05078125,0.27539062,1.0097656,0.536008,0.010986272,0.27539062,1.0097656,-8,-9,-26,-88,-46,-14,-5,-5
12.51696491241455,false,0.072265625,0.27783203,0.9658203,0.5356922,0.012328794,0.27783203,0.9658203,2,1,11,46,17,5,-4,1
12.545186996459961,false,0.107421875,0.24414062,0.9433594,0.5356323,0.013427429,0.24414062,0.9433594,-6,-7,-9,-5,-6,1,-1,-5
12.547661900520325,false,0.08496094,0.25683594,0.97216797,0.5353417,0.015197819,0.25683594,0.97216797,2,2,9,8,13,5,5,1
12.57573390007019,false,0.08154297,0.3154297,1.0166016,0.5350263,0.016845455,0.3154297,1.0166016,-2,-1,-3,-3,0,1,0,0
12.605068922042847,false,0.087890625,0.27783203,1.0151367,0.5342385,0.016296318,0.27783203,1.0151367,1,1,0,12,22,7,3,0
12.634832978248596,false,0.08642578,0.234375,0.96972656,0.53305775,0.015075024,0.234375,0.96972656,-2,-2,10,13,21,-7,-4,-2
12.636358976364136,false,0.079589844,0.23583984,0.9238281,0.5319078,0.014709097,0.23583984,0.9238281,2,5,4,8,21,8,-1,1
12.66511595249176,false,0.04638672,0.27783203,0.9135742,0.5306963,0.016479354,0.27783203,0.9135742,-1,1,18,2,-9,4,-3,-2
12.69497799873352,false,0.008300781,0.34521484,0.93115234,0.52958727,0.01977484,0.34521484,0.93115234,1,1,6,-1,3,-2,1,1
12.696395993232727,false,-0.0073242188,0.36767578,0.9501953,0.5287333,0.022399299,0.36767578,0.9501953,-6,-10,-12,-14,-24,-9,-3,-5
12.724997997283936,false,0.023925781,0.3466797,0.92529297,0.5279435,0.02362013,0.3466797,0.92529297,-2,2,13,10,-6,2,-1,-1
12.754917979240417,false,0.027832031,0.32470703,0.90283203,0.52709913,0.02514646,0.32470703,0.90283203,-4,0,27,32,-3,1,-4,-3
12.756356000900269,false,0.043945312,0.33691406,0.890625,0.52630985,0.027710157,0.33691406,0.890625,2,3,-17,-13,1,-1,1,0
12.785136938095093,false,0.045410156,0.37646484,0.9082031,0.525558,0.031920433,0.37646484,0.9082031,1,-6,-8,0,-2,-3,1,1
12.815032958984375,false,0.07080078,0.42089844,0.9423828,0.5254521,0.036254913,0.42089844,0.9423828,3,3,-19,-13,-4,-2,-3,-2
12.816444993019104,false,0.095703125,0.34326172,0.92822266,0.52592796,0.03900058,0.34326172,0.92822266,-2,2,8,11,0,2,1,1
12.845085978507996,false,0.12597656,0.26416016,0.921875,0.5265967,0.042113088,0.26416016,0.921875,3,1,-27,-13,-3,7,5,6
12.874866962432861,false,0.100097656,0.26953125,0.9536133,0.5270874,0.04821666,0.26953125,0.9536133,-6,1,58,17,5,-2,-4,-6
12.876736998558044,false,0.0859375,0.36523438,0.9736328,0.52747697,0.05700804,0.36523438,0.9736328,-2,-3,4,11,-3,-4,-2,-4
12.905619978904724,false,0.076660156,0.37646484,0.99560547,0.52874035,0.066039145,0.37646484,0.99560547,5,2,-18,-18,-3,-6,1,3
12.93480098247528,false,0.08251953,0.36035156,1.0087891,0.53062904,0.07519381,0.36035156,1.0087891,-1,-4,-24,-13,4,1,-1,1
12.965168952941895,false,0.0859375,0.26220703,0.99316406,0.53270036,0.08465346,0.26220703,0.99316406,-2,-4,-2,2,0,-3,-2,-2
12.96667492389679,false,0.11669922,0.32373047,0.9633789,0.53405493,0.09875439,0.32373047,0.9633789,0,1,-13,-4,1,4,-5,-6
12.994618892669678,false,0.075683594,0.39257812,0.9746094,0.53550833,0.115658574,0.39257812,0.9746094,-2,1,-4,-1,-1,1,2,3
12.996371984481812,false,0.04248047,0.4326172,1.0024414,0.5370493,0.13427758,0.4326172,1.0024414,-1,-4,-7,-7,-3,-8,1,1
13.025150895118713,false,0.04248047,0.4580078,1.0371094,0.5377828,0.15380917,0.4580078,1.0371094,-2,-3,-5,2,1,1,-2,-3
13.085104942321777,false,0.026855469,0.45996094,1.046875,0.5376024,0.17321931,0.45996094,1.046875,-3,-5,-10,-11,0,6,4,2
13.086451888084412,false,0.05419922,0.4013672,0.9394531,0.5362548,0.1906738,0.4013672,0.9394531,5,7,5,-2,0,-8,-6,-1
13.08898389339447,false,0.106933594,0.4111328,0.8046875,0.53277326,0.20733541,0.4111328,0.8046875,0,-3,-5,-3,-2,2,-3,-5
13.11494791507721,false,0.057617188,0.51464844,0.72802734,0.52739507,0.22552073,0.51464844,0.72802734,-9,-11,-7,-1,0,-2,-4,-9
13.116156935691833,false,0.008300781,0.703125,0.7084961,0.52209795,0.24365385,0.703125,0.7084961,-12,7,2,-4,-1,2,2,-4
13.145023941993713,false,-0.016113281,0.765625,0.7084961,0.5180636,0.25872663,0.765625,0.7084961,9,14,6,6,1,-3,-3,6
13.175013899803162,false,-0.048828125,0.71728516,0.73876953,0.5153147,0.2688572,0.71728516,0.73876953,66,15,-6,-4,-2,2,-3,7
13.177032947540283,false,-0.08300781,0.62841797,0.7504883,0.51226485,0.27551097,0.62841797,0.7504883,18,-29,-3,-1,3,-1,-5,8
13.204980969429016,false,-0.10839844,0.6230469,0.73828125,0.5076475,0.2820535,0.6230469,0.73828125,-3,7,7,1,0,7,8,-5
13.235282897949219,false,-0.16113281,0.74121094,0.71435547,0.501773,0.28991872,0.74121094,0.71435547,-30,-13,0,2,-3,-4,19,1
13.237191915512085,false,-0.16259766,0.796875,0.70458984,0.49645606,0.2962013,0.796875,0.70458984,27,39,2,1,2,-3,-18,-5
13.265021920204163,false,-0.1821289,0.73779297,0.73339844,0.49204877,0.3000997,0.73779297,0.73339844,-36,-44,-3,-4,-1,-1,7,5
13.295360922813416,false,-0.23535156,0.7011719,0.7314453,0.48705566,0.3030365,0.7011719,0.7314453,-17,-9,-9,-1,0,-9,-26,-19
13.29719090461731,false,-0.22265625,0.71972656,0.71240234,0.48205686,0.30603105,0.71972656,0.71240234,7,-1,7,-1,-4,-19,28,1
13.32505488395691,false,-0.22607422,0.7524414,0.70947266,0.4774046,0.30901298,0.7524414,0.70947266,3,-1,-6,0,3,-5,-31,2
13.35490894317627,false,-0.23291016,0.7207031,0.7182617,0.47345665,0.3106735,0.7207031,0.7182617,-26,21,-4,1,3,9,8,-16
13.357065916061401,false,-0.24072266,0.6777344,0.74121094,0.4700257,0.3110922,0.6777344,0.74121094,-17,-27,6,-3,-4,13,27,6
13.385003924369812,false,-0.24316406,0.66796875,0.7470703,0.46630737,0.31097332,0.66796875,0.7470703,-36,-25,-5,-2,4,-19,-58,7
13.415220975875854,false,-0.22998047,0.7138672,0.7236328,0.46319303,0.31072813,0.7138672,0.7236328,34,16,-5,-8,-6,-18,-36,-22
13.41703188419342,false,-0.23583984,0.70214844,0.69189453,0.4605737,0.3086564,0.70214844,0.69189453,12,26,8,5,10,16,13,-3
13.445005893707275,false,-0.21533203,0.62158203,0.69091797,0.4598365,0.30431974,0.62158203,0.69091797,-14,-4,-5,-4,-21,-20,94,26
13.475315928459167,false,-0.24365234,0.5527344,0.71191406,0.45849386,0.29931495,0.5527344,0.71191406,-48,-48,6,1,-11,29,72,51
13.477150917053223,false,-0.26708984,0.5932617,0.69384766,0.4570421,0.29541716,0.5932617,0.69384766,-5,1,-1,3,0,10,-53,-35
13.505044937133789,false,-0.27294922,0.6430664,0.66845703,0.45691597,0.29101998,0.6430664,0.66845703,29,13,-5,-5,3,12,-20,-63
13.535078883171082,false,-0.2319336,0.6225586,0.64746094,0.45891824,0.28460377,0.6225586,0.64746094,10,0,-5,1,1,-3,-41,-31
13.53708791732788,false,-0.23486328,0.5307617,0.6850586,0.46275046,0.27629533,0.5307617,0.6850586,24,26,-3,-2,15,-19,-121,-38
13.565100908279419,false,-0.2788086,0.44677734,0.76708984,0.46685624,0.2667837,0.44677734,0.76708984,-66,-74,-8,-8,-14,-21,127,48
13.595833897590637,false,-0.30615234,0.36523438,0.7890625,0.47082692,0.25677586,0.36523438,0.7890625,-3,12,-4,-7,-15,35,68,99
13.597708940505981,false,-0.3173828,0.28466797,0.81689453,0.4738089,0.24706666,0.28466797,0.81689453,83,70,0,3,19,-8,-32,28
13.625143885612488,false,-0.33007812,0.24804688,0.84716797,0.47569934,0.23839897,0.24804688,0.84716797,11,33,6,6,32,12,-124,-19
13.684732913970947,false,-0.328125,0.26513672,0.83984375,0.47630614,0.23131731,0.26513672,0.83984375,7,9,-10,-1,-2,21,-15,-6
13.744950890541077,false,-0.34716797,0.25146484,0.89453125,0.47675073,0.22467282,0.25146484,0.89453125,78,74,6,2,44,3,-102,-46
13.748047947883606,false,-0.3466797,0.21142578,0.84716797,0.47258446,0.20165557,0.21142578,0.84716797,-1,-8,5,-2,-4,-2,10,-4
13.775047898292542,false,-0.3564453,0.12548828,0.890625,0.47101337,0.19574185,0.12548828,0.890625,-15,-30,2,-3,1,4,75,2
13.777076959609985,false,-0.37402344,0.091308594,0.92089844,0.4687528,0.19043082,0.091308594,0.92089844,21,23,2,0,-5,-2,-18,-34
13.804939985275269,false,-0.33251953,0.115722656,0.9326172,0.46539152,0.18518005,0.115722656,0.9326172,-7,6,-2,-4,0,2,-12,0
13.835017919540405,false,-0.3154297,0.100097656,0.9121094,0.46167046,0.18048117,0.100097656,0.9121094,-10,-29,-8,1,-15,-25,-20,13
13.837118983268738,false,-0.32421875,0.07373047,0.9277344,0.45783186,0.17633332,0.07373047,0.9277344,-1,9,-7,-3,-3,5,1,1
13.865169882774353,false,-0.3383789,0.07421875,0.9248047,0.4534905,0.17248508,0.07421875,0.9248047,8,10,-13,-10,-11,-11,5,14
13.895145893096924,false,-0.28515625,0.0546875,0.94140625,0.44836447,0.16833504,0.0546875,0.94140625,5,-14,-8,-8,9,14,-4,9
13.89706289768219,false,-0.29638672,0.037109375,0.9453125,0.44329527,0.16467172,0.037109375,0.9453125,21,20,7,6,19,21,5,-7
13.955530881881714,false,-0.29638672,0.04296875,0.9086914,0.43830156,0.161502,0.04296875,0.9086914,20,-17,-18,-7,-13,-1,-1,14
13.957328915596008,false,-0.30371094,0.03466797,0.9291992,0.43255007,0.15972675,0.03466797,0.9291992,-3,11,-4,3,-8,4,6,-3
13.985091924667358,false,-0.27148438,0.099121094,0.9091797,0.42144093,0.15759023,0.099121094,0.9091797,-5,-4,-3,0,9,1,-5,-5
14.015057921409607,false,-0.30419922,0.100097656,0.9609375,0.41681018,0.15649456,0.100097656,0.9609375,-9,-16,-24,-3,-5,-7,-12,-9
14.016990900039673,false,-0.2626953,0.08496094,0.98291016,0.41260076,0.15448114,0.08496094,0.98291016,6,10,18,7,3,6,-3,-5
14.045130968093872,false,-0.26513672,0.05859375,0.99316406,0.40870377,0.15216525,0.05859375,0.99316406,-1,-11,-1,-4,14,-32,-5,-3
14.075179934501648,false,-0.26416016,0.025390625,0.95996094,0.40587595,0.14971635,0.025390625,0.95996094,-1,-9,-1,-3,0,25,6,7
14.077070951461792,false,-0.26367188,0.048828125,0.99072266,0.4027607,0.14855579,0.048828125,0.99072266,30,0,8,-3,-18,-10,3,0
14.105094909667969,false,-0.26660156,0.0043945312,0.95410156,0.4002722,0.14788952,0.0043945312,0.95410156,14,-10,-29,-19,-4,4,1,6
14.135111927986145,false,-0.25878906,0.075683594,0.9614258,0.3977108,0.14898896,0.075683594,0.9614258,-12,23,2,9,13,19,10,-2
14.13717794418335,false,-0.26757812,0.14257812,0.9604492,0.3966508,0.15014017,0.14257812,0.9604492,-15,-8,-15,-13,6,12,3,2
14.165238976478577,false,-0.27246094,0.12548828,1.0087891,0.39617604,0.1508777,0.12548828,1.0087891,-13,-10,-12,-10,-4,-5,-7,-6
14.195065975189209,false,-0.30029297,0.021972656,1.0605469,0.39635012,0.15160666,0.021972656,1.0605469,-1,-3,-6,0,1,0,-2,0
14.197089910507202,false,-0.3232422,-0.068359375,1.1108398,0.39586803,0.15411143,-0.068359375,1.1108398,-9,22,32,6,-10,5,-7,-5
14.225125908851624,false,-0.25976562,0.03125,1.0078125,0.39422458,0.16058289,0.03125,1.0078125,0,36,6,-3,-24,-25,-9,-2
14.255123972892761,false,-0.21582031,0.19189453,0.9379883,0.3912249,0.17016147,0.19189453,0.9379883,-10,49,-12,13,11,-10,-8,-5
14.257126927375793,false,-0.29492188,0.32080078,0.9272461,0.38824487,0.18017589,0.32080078,0.9272461,5,5,-24,-44,-7,-3,3,10
14.28504991531372,false,-0.29882812,0.36523438,0.9121094,0.3859844,0.18798734,0.36523438,0.9121094,1,-6,4,14,4,9,2,0
14.31525194644928,false,-0.25683594,0.3935547,0.9038086,0.38353953,0.19402803,0.3935547,0.9038086,26,-13,7,2,2,-8,-3,2
14.317591905593872,false,-0.23632812,0.44384766,0.9116211,0.38152012,0.19970146,0.44384766,0.9116211,6,-13,-17,-11,1,4,-2,-5
14.345128893852234,false,-0.25195312,0.45507812,0.9243164,0.3808002,0.20532326,0.45507812,0.9243164,-9,-18,-3,-1,-3,-3,-3,-7
14.375179886817932,false,-0.2524414,0.39648438,0.91748047,0.38049743,0.20898671,0.39648438,0.91748047,12,-5,9,20,1,-2,3,9
14.37719190120697,false,-0.24267578,0.36132812,0.8852539,0.3787054,0.21251446,0.36132812,0.8852539,-21,2,2,19,-4,-4,-1,1
14.404892921447754,false,-0.21923828,0.40771484,0.8227539,0.37585682,0.21655408,0.40771484,0.8227539,-12,8,1,-4,0,1,2,3
14.435154914855957,false,-0.26367188,0.5102539,0.8442383,0.37262237,0.22241375,0.5102539,0.8442383,14,17,-1,2,2,-3,-13,-13
14.437089920043945,false,-0.2944336,0.5991211,0.8300781,0.37041348,0.22722845,0.5991211,0.8300781,11,-8,-1,19,4,6,14,13
14.465040922164917,false,-0.25830078,0.55908203,0.82470703,0.36919862,0.2291241,0.55908203,0.82470703,-60,-51,-11,7,-5,-4,-7,-46
14.495105981826782,false,-0.23291016,0.53515625,0.77001953,0.36742678,0.22967225,0.53515625,0.77001953,-3,-17,-11,-7,1,-1,1,12
14.497200965881348,false,-0.23535156,0.5180664,0.7441406,0.3657857,0.23083623,0.5180664,0.7441406,10,11,29,5,30,1,-11,4
14.525130987167358,false,-0.25585938,0.50927734,0.7211914,0.36413577,0.23284915,0.50927734,0.7211914,-19,-23,6,-5,-22,-16,-49,-26
14.555142998695374,false,-0.28466797,0.61035156,0.7211914,0.36229995,0.23675227,0.61035156,0.7211914,-7,-3,8,0,9,6,24,-5
14.557138919830322,false,-0.2861328,0.61376953,0.7475586,0.36156976,0.24047685,0.61376953,0.7475586,15,12,-13,-4,-10,2,2,4
14.615009903907776,false,-0.28076172,0.5473633,0.7944336,0.36113903,0.2434652,0.5473633,0.7944336,-21,-7,-2,-21,-2,1,24,19
14.61677896976471,false,-0.27392578,0.55615234,0.7763672,0.36010695,0.24548307,0.55615234,0.7763672,12,1,-2,19,-12,5,10,6
14.619027972221375,false,-0.27929688,0.59472656,0.75097656,0.35907,0.24682629,0.59472656,0.75097656,20,30,-4,5,6,-2,-32,11
14.64497697353363,false,-0.28710938,0.5834961,0.7260742,0.35863373,0.24816282,0.5834961,0.7260742,-40,-9,-33,-26,-19,-5,4,-22
14.675182938575745,false,-0.27685547,0.51464844,0.7495117,0.35851422,0.248897,0.51464844,0.7495117,51,25,4,9,1,6,-22,20
14.676849961280823,false,-0.29345703,0.50439453,0.7988281,0.35802877,0.2501807,0.50439453,0.7988281,8,9,-3,-7,9,-7,-8,3
14.705163955688477,false,-0.2915039,0.5126953,0.7939453,0.3569968,0.25091705,0.5126953,0.7939453,-26,-25,-1,-13,0,-3,6,-7
14.735037922859192,false,-0.296875,0.5522461,0.78466797,0.35588166,0.25121057,0.5522461,0.78466797,27,10,4,-2,-6,4,4,22
14.737145900726318,false,-0.27734375,0.5385742,0.7626953,0.35528794,0.25134438,0.5385742,0.7626953,17,3,46,38,14,23,80,15
14.76508092880249,false,-0.29296875,0.55029297,0.7783203,0.3551104,0.25147042,0.55029297,0.7783203,16,-6,-17,-6,-6,-26,-40,-24
14.795206904411316,false,-0.28808594,0.5761719,0.7739258,0.35546762,0.25134197,0.5761719,0.7739258,17,10,12,7,3,2,-5,-23
14.797046899795532,false,-0.28857422,0.56689453,0.7792969,0.35693052,0.25048614,0.56689453,0.7792969,-21,0,-20,-8,14,-6,-7,-3
14.82509994506836,false,-0.2763672,0.5263672,0.75927734,0.3592485,0.2485931,0.5263672,0.75927734,-31,-11,-3,-3,-6,-4,-29,-8
14.855097889900208,false,-0.28271484,0.4794922,0.75439453,0.36187032,0.2460889,0.4794922,0.75439453,-46,-29,-6,-4,-3,-1,-5,6
14.85705292224884,false,-0.2890625,0.46142578,0.75927734,0.36473256,0.24352124,0.46142578,0.75927734,32,7,16,12,-5,-6,-52,-13
14.885121941566467,false,-0.2939453,0.42822266,0.78027344,0.36796895,0.24095893,0.42822266,0.78027344,13,-11,4,8,-6,11,37,7
14.915212988853455,false,-0.3125,0.3852539,0.8173828,0.37102202,0.23772508,0.3852539,0.8173828,-23,2,15,-3,11,4,19,-21
14.917113900184631,false,-0.3256836,0.34326172,0.8339844,0.37347654,0.23425443,0.34326172,0.8339844,-1,-8,-1,-2,5,-11,9,24
14.945055961608887,false,-0.33935547,0.30810547,0.86279297,0.37487096,0.23095274,0.30810547,0.86279297,14,17,16,9,11,41,68,-11
14.975092887878418,false,-0.36279297,0.27490234,0.9038086,0.3753033,0.22845344,0.27490234,0.9038086,37,16,-26,-14,-10,1,-25,13
14.97705590724945,false,-0.34570312,0.3232422,0.9038086,0.37492457,0.22576037,0.3232422,0.9038086,-4,8,-11,-5,3,-13,-27,2
15.005042910575867,false,-0.32226562,0.36132812,0.88623047,0.37473887,0.22289029,0.36132812,0.88623047,40,31,9,6,9,1,16,10
15.035114884376526,false,-0.32666016,0.3173828,0.8959961,0.3751725,0.21953726,0.3173828,0.8959961,-8,-8,-11,-3,-10,7,8,16
15.037067890167236,false,-0.34179688,0.26513672,0.9213867,0.3754267,0.21539275,0.26513672,0.9213867,-34,-24,6,-16,-3,10,-11,-15
15.064788937568665,false,-0.35253906,0.21679688,0.9355469,0.37553453,0.2109292,0.21679688,0.9355469,-3,10,1,-9,-9,-43,-93,-12
15.067112922668457,false,-0.34472656,0.21777344,0.92626953,0.37505844,0.20660257,0.21777344,0.92626953,42,11,3,15,3,29,32,23
15.09574294090271,false,-0.33203125,0.24414062,0.9091797,0.37481493,0.20214738,0.24414062,0.9091797,11,4,3,1,-9,-11,5,-7
15.124745965003967,false,-0.3383789,0.25878906,0.86376953,0.37498367,0.19805047,0.25878906,0.86376953,5,1,7,0,9,16,1,19
15.127188920974731,false,-0.36621094,0.19433594,0.8881836,0.37592253,0.193424,0.19433594,0.8881836,28,13,15,-21,20,31,22,11
15.15566897392273,false,-0.36523438,0.10058594,0.91845703,0.37670904,0.18798831,0.10058594,0.91845703,-18,-45,-36,-42,7,-88,-42,-11
15.184736967086792,false,-0.34375,0.07910156,0.9526367,0.37651604,0.18279552,0.07910156,0.9526367,-15,-21,-6,21,-9,32,2,17
15.187165975570679,false,-0.34179688,0.067871094,0.99316406,0.37528962,0.17821527,0.067871094,0.99316406,0,-24,-4,23,31,42,25,-14
15.215832948684692,false,-0.31982422,0.080078125,0.9628906,0.37365296,0.17407027,0.080078125,0.9628906,-4,6,-5,5,-28,-23,-15,-14
15.244646906852722,false,-0.33740234,0.04248047,0.94628906,0.37205794,0.17046553,0.04248047,0.94628906,22,42,-9,-4,-7,60,27,-2
15.247094988822937,false,-0.32421875,0.021484375,0.9477539,0.36950326,0.16760091,0.021484375,0.9477539,5,15,12,-1,39,40,21,6
15.275689959526062,false,-0.33789062,0.036132812,0.9526367,0.36699218,0.16521667,0.036132812,0.9526367,-4,-8,-7,-11,4,-29,17,19
15.30471396446228,false,-0.30078125,0.03173828,0.9453125,0.36444584,0.1630271,0.03173828,0.9453125,-6,-8,16,-6,-27,-30,-16,-11
15.307118892669678,false,-0.3232422,0.04248047,0.9580078,0.3621112,0.16210474,0.04248047,0.9580078,-36,5,69,25,-26,-6,-20,-15
15.33569598197937,false,-0.3227539,0.083496094,0.91845703,0.35979998,0.16174214,0.083496094,0.91845703,-34,-28,-18,-8,-1,-24,-8,7
15.365004897117615,false,-0.31445312,0.049804688,0.90478516,0.3578391,0.1614945,0.049804688,0.90478516,7,22,-3,13,18,12,3,-16
15.367259979248047,false,-0.31445312,0.01953125,0.9785156,0.35570073,0.1609442,0.01953125,0.9785156,-8,-27,-26,-8,-42,-14,-19,2
15.3956139087677,false,-0.296875,0.052734375,0.96875,0.3532761,0.16015835,0.052734375,0.96875,7,-6,6,2,-10,-21,-15,14
15.42485499382019,false,-0.28759766,-0.028808594,0.87060547,0.35137767,0.15905684,-0.028808594,0.87060547,-6,14,3,0,-5,30,7,-11
15.427251935005188,false,-0.31152344,-0.080566406,0.8618164,0.34880057,0.15905061,-0.080566406,0.8618164,-8,3,-18,0,-8,-9,-5,-3
15.45570194721222,false,-0.32470703,0.052734375,0.92529297,0.34515607,0.16052352,0.052734375,0.92529297,22,10,9,5,20,-3,4,12
15.48468291759491,false,-0.30517578,0.118652344,0.95166016,0.34259018,0.16064446,0.118652344,0.95166016,5,-6,29,-1,-66,-35,-12,-6
15.487214922904968,false,-0.28857422,0.0063476562,0.94140625,0.34111753,0.15960321,0.0063476562,0.94140625,65,2,-49,-14,12,-1,12,15
15.51593291759491,false,-0.2783203,0.0014648438,0.9692383,0.338984,0.1598486,0.0014648438,0.9692383,26,2,-37,-11,32,-3,2,5
15.544748902320862,false,-0.2939453,0.111328125,1.0439453,0.33678648,0.16100812,0.111328125,1.0439453,-4,-11,-24,-8,-34,-29,-10,4
15.547155976295471,false,-0.29345703,0.07470703,1.0102539,0.33520532,0.1610719,0.07470703,1.0102539,-20,-3,17,0,-45,3,2,-2
15.575623989105225,false,-0.26611328,0.011230469,0.8833008,0.33410394,0.16143678,0.011230469,0.8833008,-13,-1,-7,14,78,17,-2,-6
15.605077981948853,false,-0.2524414,0.009765625,0.9277344,0.33234042,0.16485794,0.009765625,0.9277344,-4,-14,-36,-12,13,1,4,2
15.607134938240051,false,-0.37109375,0.18066406,1.0595703,0.3308118,0.17083806,0.18066406,1.0595703,-23,-15,26,10,-6,-1,-7,-12
15.635685920715332,false,-0.38183594,0.15185547,1.0976562,0.33055997,0.17596094,0.15185547,1.0976562,-13,-8,22,-5,0,-2,-4,-17
15.664716958999634,false,-0.3076172,-0.029785156,0.9267578,0.33044174,0.18011333,-0.029785156,0.9267578,-27,11,55,-2,-32,0,-6,-5
15.66714894771576,false,-0.19970703,0.036132812,0.83447266,0.32603508,0.18773566,0.036132812,0.83447266,16,67,-10,3,18,1,5,5
15.695913910865784,false,-0.3154297,0.36328125,0.8798828,0.32078853,0.19866185,0.36328125,0.8798828,-3,25,-16,3,10,-11,0,7
15.72480595111847,false,-0.40771484,0.54052734,0.9291992,0.31987965,0.20647831,0.54052734,0.9291992,0,-14,7,11,8,1,0,2
15.7272629737854,false,-0.32470703,0.44335938,0.9663086,0.31956983,0.21001524,0.44335938,0.9663086,18,-16,-3,39,6,10,4,1
15.755717992782593,false,-0.3305664,0.2709961,0.9760742,0.3184121,0.21154232,0.2709961,0.9760742,-6,-17,19,18,-2,6,-6,-16
15.784750938415527,false,-0.2788086,0.18847656,0.76708984,0.31591338,0.2133758,0.18847656,0.76708984,-46,-4,31,35,6,-1,-3,-14
15.787181973457336,false,-0.20751953,0.4243164,0.77441406,0.31090698,0.21789122,0.4243164,0.77441406,-16,-4,-19,-11,7,-6,1,3
15.815646886825562,false,-0.35253906,0.6616211,0.91503906,0.30803528,0.2253351,0.6616211,0.91503906,-5,-7,-6,-12,-5,-5,-4,2
15.844649910926819,false,-0.3774414,0.67285156,1.0820312,0.30719224,0.23034841,0.67285156,1.0820312,56,-29,-21,-42,-12,-6,-5,0
15.847514986991882,false,-0.34423828,0.31640625,0.93066406,0.30498528,0.22966973,0.31640625,0.93066406,-11,5,0,-32,2,5,4,14
15.87563693523407,false,-0.20263672,0.22802734,0.6274414,0.2983992,0.22656123,0.22802734,0.6274414,13,9,11,2,77,9,8,10
15.904670000076294,false,-0.16015625,0.70751953,0.51904297,0.289854,0.22649993,0.70751953,0.51904297,-9,-1,-12,-7,-58,-2,-3,-14
15.907144904136658,false,-0.3178711,0.9135742,0.62841797,0.28905544,0.23247723,0.9135742,0.62841797,-6,-34,-5,-5,-44,-8,-2,-5
15.9356929063797,false,-0.3305664,0.55615234,0.78515625,0.29308522,0.2348588,0.55615234,0.78515625,-59,26,-12,19,15,-9,-36,6
15.964783906936646,false,-0.3071289,0.31445312,0.89990234,0.29247317,0.23449123,0.31445312,0.89990234,27,-44,-8,-36,12,5,29,12
15.967435956001282,false,-0.2319336,0.54589844,0.7426758,0.2877757,0.23467603,0.54589844,0.7426758,9,-19,22,-17,0,8,9,-14
15.995689988136292,false,-0.25439453,0.7602539,0.609375,0.28673524,0.23674883,0.7602539,0.609375,24,53,-4,-3,5,-2,-12,-25
16.024784922599792,false,-0.296875,0.66845703,0.6586914,0.2883256,0.23827755,0.66845703,0.6586914,21,25,-17,11,2,14,-2,38
16.027326941490173,false,-0.27246094,0.48046875,0.7685547,0.2894257,0.23852292,0.48046875,0.7685547,-34,-21,-4,-1,11,-8,17,-3
16.05580997467041,false,-0.3149414,0.47851562,0.8071289,0.28869548,0.23925716,0.47851562,0.8071289,25,23,-8,13,6,-7,-16,-10
16.084792971611023,false,-0.29541016,0.6098633,0.71875,0.2878353,0.2406562,0.6098633,0.71875,19,-3,-3,3,-13,-1,16,9
16.087198972702026,false,-0.2783203,0.6479492,0.6850586,0.28819695,0.24083549,0.6479492,0.6850586,-17,13,-7,-3,-3,8,1,-16
16.1157169342041,false,-0.296875,0.50683594,0.7480469,0.28931308,0.24066699,0.50683594,0.7480469,6,2,0,19,-21,0,60,48
16.144726991653442,false,-0.3251953,0.45117188,0.8227539,0.28948325,0.2413276,0.45117188,0.8227539,73,5,6,7,-4,1,17,-85
16.20560896396637,false,-0.3227539,0.53222656,0.80859375,0.28856823,0.24230455,0.53222656,0.80859375,7,2,16,22,-13,0,-29,10
16.207616925239563,false,-0.3125,0.61865234,0.7758789,0.2880878,0.24316563,0.61865234,0.7758789,-55,-53,4,-13,-3,-2,-16,-12
16.23482096195221,false,-0.2783203,0.58935547,0.75683594,0.2890572,0.24346477,0.58935547,0.75683594,-2,-6,-9,1,-30,-3,-2,-17
16.235734939575195,false,-0.31054688,0.5541992,0.80078125,0.29107857,0.24304359,0.5541992,0.80078125,6,30,14,13,29,7,-13,4
16.264514923095703,false,-0.28710938,0.61083984,0.75683594,0.29289654,0.24236137,0.61083984,0.75683594,-9,-32,-19,-16,5,-3,-2,6
16.26713991165161,false,-0.27734375,0.55908203,0.76220703,0.29619348,0.24083649,0.55908203,0.76220703,18,13,15,12,12,16,32,-22
16.295766949653625,false,-0.29052734,0.4873047,0.78808594,0.29972985,0.23851441,0.4873047,0.78808594,-26,-19,-2,7,-21,-11,-17,5
16.325268983840942,false,-0.30566406,0.40673828,0.8198242,0.30248976,0.23632775,0.40673828,0.8198242,6,1,-7,-5,-7,-19,6,13
16.327897906303406,false,-0.32470703,0.390625,0.82177734,0.304255,0.2347982,0.390625,0.82177734,38,-2,-2,-23,-23,-3,-38,-53
16.35564696788788,false,-0.31201172,0.4321289,0.8305664,0.30560505,0.23382725,0.4321289,0.8305664,12,14,0,21,16,3,0,-18
16.385201930999756,false,-0.30566406,0.4555664,0.8334961,0.30693457,0.23314576,0.4555664,0.8334961,-104,-43,-14,-11,-9,14,73,18
16.38772988319397,false,-0.3173828,0.4482422,0.8232422,0.3081583,0.23211053,0.4482422,0.8232422,51,62,0,-3,9,28,13,41
16.415812969207764,false,-0.31396484,0.47998047,0.8129883,0.30949584,0.23033668,0.47998047,0.8129883,-26,-35,-5,-9,5,-13,-14,-23
16.445320963859558,false,-0.30615234,0.46826172,0.80371094,0.31133536,0.22826783,0.46826172,0.80371094,-46,-38,-14,-9,-18,5,4,11
16.447788953781128,false,-0.31201172,0.42578125,0.82470703,0.31426692,0.22546163,0.42578125,0.82470703,2,-10,17,7,-6,-5,-10,-4
16.47571897506714,false,-0.29882812,0.34521484,0.8457031,0.31688252,0.22197644,0.34521484,0.8457031,11,18,15,11,-1,-21,-54,33
16.5051109790802,false,-0.3203125,0.31835938,0.8642578,0.3191439,0.2186218,0.31835938,0.8642578,-2,-9,4,9,-6,19,11,-8
16.507792949676514,false,-0.33203125,0.3227539,0.89746094,0.32050103,0.21490842,0.3227539,0.89746094,-2,20,1,10,4,2,10,-4
16.535727977752686,false,-0.31884766,0.30029297,0.87353516,0.3216422,0.2108679,0.30029297,0.87353516,-27,-39,-4,-10,-3,-12,-20,7
16.565136909484863,false,-0.3388672,0.23925781,0.89501953,0.32281908,0.20691185,0.23925781,0.89501953,-18,-12,-7,-12,-5,-15,0,19
16.567654967308044,false,-0.34179688,0.16308594,0.9243164,0.32305023,0.20305839,0.16308594,0.9243164,30,10,-4,6,4,0,-17,-6
16.596518993377686,false,-0.33740234,0.19873047,0.9423828,0.32249877,0.20000538,0.19873047,0.9423828,-23,0,-22,-12,-7,-9,-1,3
16.62575089931488,false,-0.3203125,0.2397461,0.96435547,0.3220292,0.19696517,0.2397461,0.96435547,0,-8,-2,-22,-4,13,25,15
16.628455996513367,false,-0.32128906,0.27929688,0.9042969,0.3218959,0.1943338,0.27929688,0.9042969,5,20,43,18,-8,-9,-16,-22
16.655818939208984,false,-0.33544922,0.24658203,0.88378906,0.32250482,0.19164744,0.24658203,0.88378906,30,7,-34,-10,13,-5,-3,15
16.68512499332428,false,-0.33251953,0.17041016,0.90625,0.32329255,0.18822621,0.17041016,0.90625,14,-16,-29,-16,9,2,8,3
16.68776297569275,false,-0.3330078,0.16015625,0.953125,0.32384917,0.1845684,0.16015625,0.953125,46,31,-19,-21,14,50,29,0
16.715759992599487,false,-0.31201172,0.14550781,0.9448242,0.32403082,0.18041724,0.14550781,0.9448242,13,6,-3,-17,-9,-19,-4,6
16.745094895362854,false,-0.3100586,0.13964844,0.8964844,0.32475993,0.17669235,0.13964844,0.8964844,-2,9,1,-34,-8,20,5,-12
16.747737884521484,false,-0.34228516,0.03466797,0.95947266,0.32531726,0.17309564,0.03466797,0.95947266,-8,8,35,59,5,-11,-11,-16
16.775714993476868,false,-0.34277344,0.001953125,0.98583984,0.32457936,0.16973583,0.001953125,0.98583984,-35,-15,7,20,8,-34,-16,-4
16.80513095855713,false,-0.29882812,0.056640625,0.95214844,0.32305276,0.16704996,0.056640625,0.95214844,22,37,-18,-1,15,24,19,10
16.807726979255676,false,-0.30859375,0.08251953,0.92529297,0.32220685,0.16565058,0.08251953,0.92529297,-28,-45,-10,-6,-6,-75,-32,-2
16.835729956626892,false,-0.31347656,0.06298828,0.96191406,0.32189754,0.16436672,0.06298828,0.96191406,-1,28,21,1,-31,-7,-6,-9
16.865372896194458,false,-0.3076172,0.040039062,0.9042969,0.32030433,0.16308178,0.040039062,0.9042969,9,-10,-3,-5,-10,13,-7,0
16.868305921554565,false,-0.3022461,0.0390625,0.91308594,0.31811538,0.16308601,0.0390625,0.91308594,27,27,-7,-15,16,3,9,17
16.895681977272034,false,-0.3305664,0.087890625,1.0083008,0.31609637,0.16393799,0.087890625,1.0083008,34,-33,-56,-20,-13,-22,-15,-7
16.92515790462494,false,-0.3022461,0.104003906,0.9472656,0.31463656,0.16412371,0.104003906,0.9472656,-28,8,-3,-11,-3,18,13,-2
16.927847981452942,false,-0.2841797,0.080566406,0.87646484,0.31311586,0.16430955,0.080566406,0.87646484,16,10,21,5,3,5,6,8
16.95648193359375,false,-0.3100586,0.107910156,0.8984375,0.3117662,0.16613697,0.107910156,0.8984375,-3,-9,-28,2,42,18,13,0
16.985912919044495,false,-0.3154297,0.12109375,1.0585938,0.3112801,0.16674848,0.12109375,1.0585938,15,8,26,12,-40,-3,1,22
16.988470911979675,false,-0.28271484,0.05517578,1.0043945,0.31036603,0.16491818,0.05517578,1.0043945,-15,17,22,7,8,1,3,8
17.016580939292908,false,-0.25146484,-0.06640625,0.91552734,0.30968204,0.16301946,-0.06640625,0.91552734,-21,-14,-6,6,10,8,-6,-9
17.045768976211548,false,-0.30664062,0.0126953125,0.8979492,0.30809793,0.16466883,0.0126953125,0.8979492,-64,0,-10,-1,-12,-12,-2,-2
17.04837191104889,false,-0.32714844,0.16308594,0.92041016,0.306635,0.1672943,0.16308594,0.92041016,21,-18,-16,2,17,3,-4,-5
17.076390981674194,false,-0.33007812,0.087890625,0.98291016,0.30644503,0.168145,0.087890625,0.98291016,18,2,-9,-5,-32,-9,-1,-6
17.105703949928284,false,-0.3022461,0.021484375,1.034668,0.30542293,0.16943528,0.021484375,1.034668,15,12,26,6,12,4,1,2
17.108154892921448,false,-0.31152344,-0.046875,1.0073242,0.3038822,0.17351618,-0.046875,1.0073242,15,-14,1,8,42,-24,-18,-15
17.13662898540497,false,-0.2919922,0.08984375,0.9160156,0.30163306,0.18096761,0.08984375,0.9160156,-25,-89,-20,-16,-17,-5,-2,-25
17.165891885757446,false,-0.32666016,0.27929688,0.9121094,0.2987592,0.1878002,0.27929688,0.9121094,-3,99,31,33,1,35,6,10
17.16833198070526,false,-0.33007812,0.3696289,0.9453125,0.295532,0.19354232,0.3696289,0.9453125,-7,37,-4,19,-5,-5,-5,-5
17.19647789001465,false,-0.31591797,0.32861328,0.9428711,0.2939379,0.19823718,0.32861328,0.9428711,13,6,-5,-32,-5,13,0,4
17.225741982460022,false,-0.26513672,0.24902344,0.8491211,0.2924151,0.20238958,0.24902344,0.8491211,29,2,9,7,1,-5,-2,-5
17.228606939315796,false,-0.28076172,0.29492188,0.8461914,0.29008844,0.20708397,0.29492188,0.8461914,-12,-1,28,11,-11,-8,-1,2
17.256334900856018,false,-0.30517578,0.4404297,0.84765625,0.28741053,0.21185008,0.4404297,0.84765625,-51,-23,-26,-26,-10,-12,-3,3
17.28593599796295,false,-0.3203125,0.55371094,0.93066406,0.2858168,0.21581213,0.55371094,0.93066406,70,5,22,23,5,3,5,5
17.28834891319275,false,-0.31982422,0.5180664,0.8720703,0.2856366,0.21709602,0.5180664,0.8720703,-44,0,-27,-15,-4,1,-1,-13
17.316361904144287,false,-0.22167969,0.4169922,0.81640625,0.28515142,0.21612182,0.4169922,0.81640625,-21,-9,17,12,5,3,-4,-15
17.345802903175354,false,-0.21191406,0.29345703,0.6191406,0.2839891,0.21514326,0.29345703,0.6191406,-39,-8,2,-14,14,-1,-4,-9
17.348379969596863,false,-0.2163086,0.5942383,0.8100586,0.28197142,0.21959594,0.5942383,0.8100586,31,2,-4,5,-29,-3,-1,3
17.37645697593689,false,-0.3955078,0.69384766,0.9248047,0.28313828,0.2250336,0.69384766,0.9248047,10,1,1,-9,-8,3,2,-7
17.40591597557068,false,-0.3305664,0.52978516,0.9794922,0.28521556,0.22601181,0.52978516,0.9794922,21,3,8,-12,9,-2,-1,13
17.408344984054565,false,-0.22314453,0.20605469,0.50878906,0.2848464,0.22118777,0.20605469,0.50878906,22,0,18,13,7,-7,-2,-18
17.436333894729614,false,-0.049804688,0.71435547,0.6928711,0.28246042,0.22356364,0.71435547,0.6928711,-2,0,-27,-14,-24,-1,6,32
17.466007947921753,false,-0.3955078,0.7910156,0.83251953,0.2894217,0.2303411,0.7910156,0.83251953,27,17,7,6,8,-3,-6,-9
17.468223929405212,false,-0.34716797,0.44189453,0.9980469,0.2968658,0.231194,0.44189453,0.9980469,-28,-2,9,-17,11,7,7,8
17.49632692337036,false,-0.25048828,0.31884766,0.91552734,0.298455,0.22905964,0.31884766,0.91552734,-51,-56,-17,14,3,-7,-7,0
17.525678992271423,false,-0.20751953,0.45263672,0.6582031,0.30052543,0.22759125,0.45263672,0.6582031,12,-11,14,15,-4,2,3,0
17.52831792831421,false,-0.31445312,0.7783203,0.6665039,0.30504203,0.23137543,0.7783203,0.6665039,-37,-15,0,-32,-13,-11,-7,-24
17.556347966194153,false,-0.38623047,0.55029297,0.8051758,0.31378528,0.23413351,0.55029297,0.8051758,28,3,-18,-12,13,1,10,27
17.58573091030121,false,-0.37890625,0.27685547,0.9238281,0.31934047,0.23437832,0.27685547,0.9238281,-8,12,1,-6,-6,0,2,19
17.58836793899536,false,-0.37060547,0.35595703,0.7939453,0.32067844,0.23461895,0.35595703,0.7939453,7,24,1,9,-5,5,-6,-19
17.616458892822266,false,-0.36669922,0.5263672,0.7236328,0.3224383,0.23705289,0.5263672,0.7236328,-42,4,-35,-21,3,7,5,-17
17.645729899406433,false,-0.39257812,0.51660156,0.8149414,0.32628655,0.2396186,0.51660156,0.8149414,-37,17,-8,11,13,-14,-19,-26
17.648384928703308,false,-0.36035156,0.44628906,0.85791016,0.32951483,0.23967488,0.44628906,0.85791016,16,1,-2,-3,-11,-4,-6,-19
17.676318883895874,false,-0.32373047,0.46728516,0.80810547,0.33246318,0.23797943,0.46728516,0.80810547,22,-3,-2,-17,-14,-21,-42,-3
17.70595896244049,false,-0.35253906,0.44140625,0.79833984,0.33556893,0.23589922,0.44140625,0.79833984,5,-9,4,-5,-20,7,18,35
17.70832598209381,false,-0.3696289,0.4091797,0.80810547,0.33861044,0.23369493,0.4091797,0.80810547,4,24,14,27,15,9,0,-3
17.736326932907104,false,-0.3647461,0.3203125,0.8354492,0.3414161,0.2310082,0.3203125,0.8354492,54,26,7,13,6,-12,3,52
17.765957951545715,false,-0.35791016,0.27246094,0.8828125,0.34318683,0.22844535,0.27246094,0.8828125,5,40,-18,11,8,20,49,-8
17.7688729763031,false,-0.36132812,0.2788086,0.8979492,0.34356633,0.22625695,0.2788086,0.8979492,7,14,19,18,-3,9,-13,-16
17.79680597782135,false,-0.3491211,0.38232422,0.87109375,0.34381178,0.22448778,0.38232422,0.87109375,8,1,-23,-30,-4,-1,4,9
17.825856924057007,false,-0.34326172,0.34814453,0.8647461,0.34489757,0.22228225,0.34814453,0.8647461,-17,-13,15,15,17,-2,-6,-11
17.828333973884583,false,-0.34423828,0.2524414,0.90185547,0.34594515,0.21954212,0.2524414,0.90185547,-10,-31,-2,2,8,9,1,-18
17.85636293888092,false,-0.35351562,0.21679688,0.9453125,0.34588948,0.21667685,0.21679688,0.9453125,-14,15,5,7,0,-16,-27,-10
17.88579797744751,false,-0.32714844,0.3203125,0.8847656,0.34534287,0.21405399,0.3203125,0.8847656,28,16,-7,-6,7,10,26,25
17.888346910476685,false,-0.30517578,0.35253906,0.8588867,0.34624234,0.2112365,0.35253906,0.8588867,-11,-40,1,-6,-14,-14,-9,11
17.916419982910156,false,-0.3071289,0.29589844,0.87353516,0.34771046,0.20739338,0.29589844,0.87353516,-19,7,2,4,-6,-4,4,-5
17.94584596157074,false,-0.3251953,0.17871094,0.89208984,0.34845096,0.20257641,0.17871094,0.89208984,-9,25,11,12,23,34,20,-17
17.94867491722107,false,-0.34570312,0.17822266,0.91748047,0.34783733,0.19805792,0.17822266,0.91748047,22,5,-14,1,-7,-8,-24,6
17.976475954055786,false,-0.3203125,0.2475586,0.89990234,0.34752247,0.19384111,0.2475586,0.89990234,32,22,-8,-8,23,35,12,-11
18.005844950675964,false,-0.29052734,0.3647461,0.82470703,0.3482625,0.18926778,0.3647461,0.82470703,-3,-22,3,-1,-21,-10,2,9
18.008505940437317,false,-0.2836914,0.15820312,0.8774414,0.3508815,0.18218495,0.15820312,0.8774414,12,-11,12,6,-18,-10,-1,3
18.0362309217453,false,-0.32861328,-0.088378906,0.9785156,0.3514397,0.1738888,-0.088378906,0.9785156,-2,-5,-14,-12,3,11,6,4
18.065860986709595,false,-0.3125,-0.10888672,0.9633789,0.34875003,0.16698986,-0.10888672,0.9633789,-26,-10,5,-19,11,-4,-1,1
18.068320989608765,false,-0.2861328,0.1274414,0.890625,0.34605592,0.16387305,0.1274414,0.890625,-12,31,8,-17,-21,-18,9,-15
18.095326900482178,false,-0.28857422,0.18457031,0.91015625,0.34502903,0.16125362,0.18457031,0.91015625,37,-30,2,-3,-31,9,10,29
18.12521493434906,false,-0.2944336,0.06933594,0.9951172,0.34435362,0.1572235,0.06933594,0.9951172,25,31,4,17,16,-22,-14,-43
18.127137899398804,false,-0.27783203,-0.020019531,0.9921875,0.3425801,0.15258335,-0.020019531,0.9921875,-51,-25,7,17,4,15,1,12
18.155094981193542,false,-0.2734375,-0.04296875,0.94970703,0.34032506,0.14916687,-0.04296875,0.94970703,38,55,18,8,17,-9,3,-5
18.1851749420166,false,-0.29052734,-0.01171875,0.953125,0.33776593,0.14721565,-0.01171875,0.953125,17,-20,-15,5,15,-36,-4,11
18.18723499774933,false,-0.3046875,-0.0014648438,0.92529297,0.335074,0.14617528,-0.0014648438,0.92529297,2,3,8,7,15,16,3,7
18.21535897254944,false,-0.27929688,-0.0390625,0.8833008,0.3316041,0.14538577,-0.0390625,0.8833008,-22,-11,-1,-1,-8,-73,-14,-24
18.245282888412476,false,-0.27783203,0.0029296875,0.890625,0.328128,0.14636365,0.0029296875,0.890625,35,26,6,-1,-38,31,12,28
18.24723196029663,false,-0.2734375,0.11816406,0.9194336,0.3244673,0.1478902,0.11816406,0.9194336,10,-7,-26,-8,-21,10,-13,-12
18.275085926055908,false,-0.2680664,0.100097656,0.9658203,0.3217786,0.1481329,0.100097656,0.9658203,-29,23,19,7,-17,35,11,-11
18.305182933807373,false,-0.2548828,0.049316406,0.9194336,0.3195679,0.14739428,0.049316406,0.9194336,-4,11,-9,-17,1,11,6,-8
18.30704391002655,false,-0.2446289,0.109375,0.8955078,0.3171983,0.14727718,0.109375,0.8955078,23,8,6,0,38,40,10,1
18.335157990455627,false,-0.26513672,0.13134766,0.87060547,0.31512734,0.1475233,0.13134766,0.87060547,21,-13,-7,-4,-15,24,4,7
18.365397930145264,false,-0.27001953,0.19433594,1.0683594,0.31427354,0.14703535,0.19433594,1.0683594,-3,-6,-20,-9,-4,-23,-11,18
18.36834192276001,false,-0.25976562,0.092285156,1.0229492,0.3135242,0.14464714,0.092285156,1.0229492,31,6,-35,-10,10,-7,-2,1
18.399327993392944,false,-0.19042969,0.018554688,0.95166016,0.31249836,0.14178392,0.018554688,0.95166016,16,6,40,11,-9,55,7,-8
18.425578951835632,false,-0.27783203,0.106933594,0.9746094,0.31169587,0.14287841,0.106933594,0.9746094,25,8,-57,-17,-12,9,7,3
18.427974939346313,false,-0.30615234,0.25341797,1.0322266,0.31152362,0.14349374,0.25341797,1.0322266,-8,-4,-34,-10,20,24,-4,-6
18.456248998641968,false,-0.2758789,0.15917969,1.0092773,0.31225052,0.14172122,0.15917969,1.0092773,-4,9,-31,-7,25,9,8,9
18.48554790019989,false,-0.23095703,-0.043945312,1.0097656,0.31220055,0.14020033,-0.043945312,1.0097656,20,10,-13,0,11,-27,-11,-12
18.488269925117493,false,-0.19677734,-0.0043945312,0.90478516,0.31059542,0.1420231,-0.0043945312,0.90478516,6,14,-18,-10,-15,3,9,5
18.516377925872803,false,-0.2548828,0.27978516,0.9628906,0.30883935,0.14660715,0.27978516,0.9628906,-26,-8,21,3,-6,-2,-11,-38
18.545894980430603,false,-0.28076172,0.40527344,1.012207,0.3079768,0.15008225,0.40527344,1.012207,44,17,-1,-10,-6,-2,-1,17
18.54716193675995,false,-0.26660156,0.107910156,1.0307617,0.30823004,0.15173464,0.107910156,1.0307617,-13,-37,10,15,3,-7,-9,-34
18.57619595527649,false,-0.17089844,0.076171875,0.93066406,0.30742073,0.15746386,0.076171875,0.93066406,42,18,-2,10,-10,40,1,4
18.605800986289978,false,-0.171875,0.17382812,0.9272461,0.30492184,0.16778025,0.17382812,0.9272461,-44,-29,14,-5,0,-31,5,22
18.608215928077698,false,-0.2626953,0.43164062,0.97216797,0.30193394,0.17998852,0.43164062,0.97216797,5,-22,-7,-9,0,-9,5,7
18.695470929145813,false,-0.23925781,0.54052734,0.9580078,0.29857808,0.18920524,0.54052734,0.9580078,31,6,-7,-7,2,-5,-9,-25
18.697451949119568,false,-0.21679688,0.4506836,0.8676758,0.29565558,0.19470298,0.4506836,0.8676758,-5,-5,6,2,10,-3,2,12
18.725920915603638,false,-0.26904297,0.74902344,0.7758789,0.28490752,0.21081203,0.74902344,0.7758789,9,-12,-10,-6,-17,5,4,7
18.728548884391785,false,-0.23632812,0.69384766,0.85009766,0.2853235,0.2136722,0.69384766,0.85009766,-21,-12,11,-5,-16,-4,-2,-23
18.7563259601593,false,-0.21875,0.57177734,0.8984375,0.2844732,0.21391945,0.57177734,0.8984375,20,-3,2,-16,13,-3,0,4
18.78580093383789,false,-0.21240234,0.46142578,0.60546875,0.28209403,0.21184517,0.46142578,0.60546875,-24,2,-5,13,13,-4,-2,0
18.788394927978516,false,-0.12792969,0.7109375,0.5786133,0.276975,0.21398729,0.7109375,0.5786133,16,-17,5,4,-16,2,-5,-2
18.816556930541992,false,-0.24316406,0.81347656,0.7182617,0.27703267,0.2186843,0.81347656,0.7182617,-34,-1,24,-18,23,1,-3,-38
18.84564697742462,false,-0.29101562,0.67333984,0.8354492,0.2777064,0.22039513,0.67333984,0.8354492,-40,-3,1,-10,-4,-9,-16,-44
18.847001910209656,false,-0.24121094,0.60009766,0.8720703,0.27514276,0.21972358,0.60009766,0.8720703,-2,61,29,5,8,-3,-8,16
18.875281929969788,false,-0.24951172,0.5854492,0.68603516,0.27227196,0.2180739,0.5854492,0.68603516,10,-88,-14,9,-14,8,4,-6
18.905144929885864,false,-0.14990234,0.7817383,0.5415039,0.26922688,0.21740787,0.7817383,0.5415039,15,16,-7,2,-19,-21,-11,-7
18.907161951065063,false,-0.22265625,0.8461914,0.6269531,0.26970407,0.21892476,0.8461914,0.6269531,2,6,4,-3,14,2,7,-4
18.934998989105225,false,-0.2475586,0.58203125,0.7626953,0.27215037,0.21862361,0.58203125,0.7626953,-14,5,3,-2,9,7,14,16
18.965138912200928,false,-0.2529297,0.5307617,0.81347656,0.270816,0.21954589,0.5307617,0.81347656,-46,-25,7,-13,-4,16,-4,9
18.966968894004822,false,-0.22216797,0.6879883,0.69384766,0.26916307,0.22064048,0.6879883,0.69384766,-3,-1,-3,2,7,-1,-4,-10
18.995213985443115,false,-0.18164062,0.76416016,0.56689453,0.26953217,0.22088699,0.76416016,0.56689453,31,24,8,6,-27,27,7,11
19.025227904319763,false,-0.21435547,0.7036133,0.5966797,0.27117282,0.22173552,0.7036133,0.5966797,2,24,-31,-22,-12,9,3,-6
19.02714490890503,false,-0.28564453,0.4477539,0.76123047,0.2734319,0.22307892,0.4477539,0.76123047,-36,-7,-11,20,-5,-72,-5,-2
19.055108904838562,false,-0.30859375,0.5024414,0.8276367,0.27299514,0.22587861,0.5024414,0.8276367,23,-49,-4,-4,-32,-46,-15,17
19.085139989852905,false,-0.26660156,0.7260742,0.7265625,0.27160642,0.22790524,0.7260742,0.7265625,-5,3,2,3,18,31,3,-27
19.08716094493866,false,-0.22363281,0.76904297,0.66064453,0.27258226,0.22717223,0.76904297,0.66064453,-14,30,-8,-17,10,-8,6,-53
19.115081906318665,false,-0.23730469,0.578125,0.6801758,0.27482474,0.22569439,0.578125,0.6801758,-49,-34,-12,-10,-24,-10,-6,-2
19.14516794681549,false,-0.2836914,0.4741211,0.7763672,0.27624828,0.22540541,0.4741211,0.7763672,-4,-20,9,-1,30,105,5,-5
19.14711892604828,false,-0.29248047,0.57470703,0.80029297,0.2770919,0.22643411,0.57470703,0.80029297,6,30,5,-5,11,1,-5,-18
19.175221920013428,false,-0.2578125,0.7373047,0.76708984,0.27837947,0.2264389,0.7373047,0.76708984,4,4,8,8,-5,19,72,48
19.205304980278015,false,-0.2319336,0.69628906,0.7001953,0.28179327,0.22417732,0.69628906,0.7001953,7,-12,-2,-2,16,-10,-15,-14
19.207146883010864,false,-0.22509766,0.56689453,0.6928711,0.28679833,0.22002722,0.56689453,0.6928711,-26,1,-3,1,28,7,-15,18
19.235228896141052,false,-0.26953125,0.4794922,0.7495117,0.29180863,0.21636929,0.4794922,0.7495117,21,11,26,12,18,-11,-2,-40
19.26524794101715,false,-0.28271484,0.40234375,0.8305664,0.29637846,0.21325089,0.40234375,0.8305664,37,64,-32,-21,55,39,25,1
19.26723599433899,false,-0.2758789,0.37109375,0.8623047,0.299554,0.21001737,0.37109375,0.8623047,-33,-5,-1,8,-19,24,-16,-19
19.295053958892822,false,-0.27978516,0.37890625,0.8286133,0.30145,0.20690738,0.37890625,0.8286133,11,-33,10,1,-17,-8,-23,30
19.325089931488037,false,-0.30126953,0.42578125,0.80859375,0.30279008,0.20501347,0.42578125,0.80859375,5,-14,6,-4,-25,-20,-16,-10
19.327143907546997,false,-0.29345703,0.42333984,0.84765625,0.30468863,0.20324782,0.42333984,0.84765625,-29,-18,-11,-5,-30,-10,5,26
19.35500395298004,false,-0.28955078,0.3569336,0.90722656,0.30651042,0.20006792,0.3569336,0.90722656,31,-13,-2,-4,-20,-11,0,9
19.385166883468628,false,-0.28808594,0.28027344,0.92333984,0.30706334,0.19555375,0.28027344,0.92333984,-8,-1,-8,-6,35,-19,-5,12
19.387157917022705,false,-0.30126953,0.2939453,0.8808594,0.30663207,0.19176711,0.2939453,0.8808594,1,0,3,0,-26,-9,-9,-5
19.415522933006287,false,-0.2993164,0.29101562,0.8979492,0.30675176,0.18883604,0.29101562,0.8979492,20,40,-11,2,8,-53,-5,-19
19.44529688358307,false,-0.29541016,0.29736328,0.94628906,0.30719256,0.18554847,0.29736328,0.94628906,12,-17,-12,-6,-42,-22,-6,-10
19.447115898132324,false,-0.3017578,0.18261719,0.93847656,0.3074897,0.18090501,0.18261719,0.93847656,-1,11,-5,-10,46,65,6,-4
19.475106954574585,false,-0.31152344,0.15039062,0.97314453,0.30688107,0.1771219,0.15039062,0.97314453,-13,-10,23,16,-39,-96,-42,-22
19.50517499446869,false,-0.31884766,0.11425781,0.9658203,0.3063336,0.17407121,0.11425781,0.9658203,-2,14,20,5,32,4,20,5
19.507776975631714,false,-0.29003906,0.06738281,0.9375,0.30499414,0.17108236,0.06738281,0.9375,-10,-9,-18,-2,15,-4,3,1
19.535725951194763,false,-0.29785156,0.15966797,1.0546875,0.30304274,0.16943537,0.15966797,1.0546875,12,2,-23,-18,11,-26,-8,14
19.565481901168823,false,-0.2861328,0.18896484,1.012207,0.30095464,0.16704783,0.18896484,1.012207,0,-10,1,2,-12,8,14,28
19.567025899887085,false,-0.2290039,0.087402344,0.91552734,0.29961956,0.16363414,0.087402344,0.91552734,24,24,3,7,27,-4,-2,-1
19.595127940177917,false,-0.27197266,0.06542969,0.9140625,0.2976642,0.16229016,0.06542969,0.9140625,4,-26,-43,-19,16,-18,-1,7
19.625030994415283,false,-0.28027344,0.15625,1.0014648,0.29583666,0.1619869,0.15625,1.0014648,-27,-24,2,-3,-40,50,5,-3
19.6272189617157,false,-0.25341797,0.15722656,0.9663086,0.29515603,0.16021186,0.15722656,0.9663086,1,9,79,44,27,24,3,-4
19.655152916908264,false,-0.23242188,0.033691406,0.9086914,0.29387787,0.1578945,0.033691406,0.9086914,-26,23,90,37,16,-17,1,-9
19.685277938842773,false,-0.25048828,0.111816406,0.99902344,0.29125383,0.158383,0.111816406,0.99902344,23,5,-35,-6,-15,-8,3,2
19.68766498565674,false,-0.29003906,0.2163086,1.0166016,0.29021737,0.15966532,0.2163086,1.0166016,-35,9,-11,-15,3,-9,-4,1
19.71589696407318,false,-0.22949219,0.1953125,0.9189453,0.28967285,0.1593628,0.1953125,0.9189453,30,-10,12,4,-20,13,-5,-12
19.745107889175415,false,-0.2421875,0.16894531,0.9663086,0.2896714,0.16009441,0.16894531,0.9663086,40,15,-51,-43,-8,2,1,0
19.74777090549469,false,-0.25439453,0.19824219,0.9580078,0.28947732,0.16204138,0.19824219,0.9580078,5,-105,-60,-5,36,6,-1,-16
19.775775909423828,false,-0.2446289,0.24023438,1.0053711,0.28887394,0.16521905,0.24023438,1.0053711,-5,47,-19,-5,-28,15,0,8
19.805149912834167,false,-0.31884766,0.234375,0.95214844,0.28953832,0.16851081,0.234375,0.95214844,-27,30,21,5,-25,-9,-7,-10
19.807772994041443,false,-0.2290039,0.26123047,0.9472656,0.28838643,0.17083463,0.26123047,0.9472656,17,10,-7,-2,7,6,6,8
19.83575689792633,false,-0.2758789,0.23535156,0.9091797,0.2862566,0.1733409,0.23535156,0.9091797,-24,-3,45,16,-15,-1,-8,-15
19.865225911140442,false,-0.2241211,0.34716797,0.84521484,0.28405145,0.17712018,0.34716797,0.84521484,-2,-8,22,12,-15,21,2,-3
19.86761498451233,false,-0.24072266,0.4477539,0.8364258,0.2824034,0.18157557,0.4477539,0.8364258,21,0,-35,-31,36,-13,4,12
19.925375938415527,false,-0.28466797,0.42382812,0.91796875,0.28210485,0.18573022,0.42382812,0.91796875,11,-13,8,10,7,-19,-3,6
19.927241921424866,false,-0.3046875,0.40478516,0.9086914,0.27953613,0.1887174,0.40478516,0.9086914,-4,6,16,30,2,6,-3,-9
19.95581090450287,false,-0.23583984,0.4946289,0.8588867,0.2733131,0.19457842,0.4946289,0.8588867,4,-19,-15,-3,-77,1,-4,-17
20.015009999275208,false,-0.28466797,0.5864258,0.8496094,0.27092463,0.19841765,0.5864258,0.8496094,27,-8,8,-7,-29,-1,0,4
20.046214938163757,false,-0.25732422,0.57910156,0.78466797,0.26854205,0.20000279,0.57910156,0.78466797,28,22,-38,-34,-10,-3,1,8
20.048184990882874,false,-0.17822266,0.5263672,0.66064453,0.26562026,0.19952036,0.5263672,0.66064453,-84,-16,-13,-5,70,-2,-6,-15
20.074673891067505,false,-0.25634766,0.6611328,0.8173828,0.26098293,0.20403787,0.6611328,0.8173828,13,-3,-11,6,-42,-6,-7,-17
20.076396942138672,false,-0.31884766,0.64941406,0.89697266,0.259507,0.20524979,0.64941406,0.89697266,-16,9,2,8,21,4,7,2
20.10523796081543,false,-0.24658203,0.4736328,0.74560547,0.2565924,0.20220993,0.4736328,0.74560547,-27,-5,5,17,-2,0,-4,-14
20.13489592075348,false,-0.08300781,0.57714844,0.4560547,0.25109255,0.19921392,0.57714844,0.4560547,3,16,9,5,-6,-5,0,3
20.13652992248535,false,-0.12646484,0.8520508,0.63183594,0.2476047,0.20299068,0.8520508,0.63183594,7,-38,-14,-16,-10,-8,-4,41
20.164999961853027,false,-0.3310547,0.7495117,0.7885742,0.25164217,0.20647718,0.7495117,0.7885742,-11,7,-9,0,4,6,5,3
20.19470191001892,false,-0.23095703,0.5097656,0.9277344,0.25195196,0.20507717,0.5097656,0.9277344,20,127,22,32,11,8,8,-2
20.196368932724,false,-0.21142578,0.4375,0.84521484,0.2490107,0.20287049,0.4375,0.84521484,-38,-76,9,-12,-12,-2,-5,-25
20.225148916244507,false,-0.14941406,0.6923828,0.5517578,0.24511725,0.20178227,0.6923828,0.5517578,-12,-3,-1,-13,12,2,5,24
20.254823923110962,false,-0.1821289,1.0136719,0.58496094,0.24468671,0.2039768,1.0136719,0.58496094,8,0,12,-11,12,-5,-1,-3
20.256518959999084,false,-0.2578125,0.7558594,0.69384766,0.25078952,0.20336594,0.7558594,0.69384766,-16,23,-30,-19,29,4,2,-14
20.285218954086304,false,-0.20654297,0.37402344,0.85253906,0.2540894,0.1999512,0.37402344,0.85253906,-14,-29,-2,6,-12,12,1,-14
20.31478488445282,false,-0.22216797,0.38964844,0.78271484,0.2532293,0.19878712,0.38964844,0.78271484,22,5,0,-3,-20,6,2,9
20.316725969314575,false,-0.22851562,0.77978516,0.6230469,0.25236863,0.20049116,0.77978516,0.6230469,-5,-20,18,37,-8,-11,-5,-29
20.345123887062073,false,-0.2475586,0.8208008,0.62841797,0.25616044,0.20214519,0.8208008,0.62841797,-27,-9,-16,-9,-16,-11,1,-2
20.374705910682678,false,-0.23388672,0.49853516,0.7895508,0.26159525,0.20117077,0.49853516,0.7895508,19,10,6,-4,6,4,4,0
20.37654995918274,false,-0.26660156,0.40283203,0.88134766,0.2629977,0.20025422,0.40283203,0.88134766,46,18,-19,-18,-10,-1,11,1
20.405242919921875,false,-0.23632812,0.60595703,0.79248047,0.2641544,0.19964164,0.60595703,0.79248047,46,33,9,3,-3,25,-10,26
20.435017943382263,false,-0.23388672,0.73046875,0.73876953,0.26726574,0.19915235,0.73046875,0.73876953,-38,-5,-5,-4,6,-8,-2,-2
20.43658697605133,false,-0.21582031,0.6328125,0.75390625,0.27258232,0.19677685,0.6328125,0.75390625,53,-19,17,5,0,-5,-6,19
20.465160965919495,false,-0.19677734,0.44091797,0.7866211,0.27787983,0.1928009,0.44091797,0.7866211,-41,-40,1,1,-18,-25,-9,14
20.49470889568329,false,-0.2680664,0.3774414,0.8515625,0.28137192,0.18963614,0.3774414,0.8515625,73,-19,-6,-4,-3,-2,3,9
20.496500968933105,false,-0.30615234,0.36132812,0.8925781,0.2827089,0.1875571,0.36132812,0.8925781,-33,-5,1,-11,9,6,-17,-26
20.52520191669464,false,-0.28076172,0.45654297,0.88378906,0.28337616,0.18566234,0.45654297,0.88378906,-1,6,-5,39,-19,6,16,-12
20.554808974266052,false,-0.22021484,0.56689453,0.8461914,0.2850869,0.18316115,0.56689453,0.8461914,-13,-5,8,-7,-18,0,1,7
20.556466937065125,false,-0.20117188,0.45263672,0.8613281,0.28863332,0.1793201,0.45263672,0.8613281,-44,12,8,16,-8,-14,-3,-13
20.585160970687866,false,-0.2548828,0.3310547,0.9165039,0.29052433,0.17419253,0.3310547,0.9165039,-5,17,3,-8,2,6,-4,-19
20.61489188671112,false,-0.2211914,0.29296875,0.89941406,0.29076192,0.16839045,0.29296875,0.89941406,-17,-33,-11,-14,5,-15,-3,1
20.616816997528076,false,-0.19042969,0.32226562,0.8666992,0.29186776,0.16338979,0.32226562,0.8666992,3,38,20,5,17,-32,-4,-17
20.645148992538452,false,-0.17773438,0.32177734,0.8959961,0.2935152,0.15905607,0.32177734,0.8959961,-3,-1,-18,-7,5,12,10,14
20.674876928329468,false,-0.20898438,0.21240234,0.9501953,0.29467812,0.15417501,0.21240234,0.9501953,-37,-25,11,0,-2,-2,-8,0
20.67651391029358,false,-0.23095703,0.15332031,0.9428711,0.29393822,0.14971563,0.15332031,0.9428711,19,8,5,-10,18,-3,-9,-9
20.705197930336,false,-0.20263672,0.25634766,0.89941406,0.2928347,0.14611219,0.25634766,0.89941406,26,6,6,-7,-1,3,-4,16
20.73523199558258,false,-0.20019531,0.28271484,0.84277344,0.2928393,0.1428797,0.28271484,0.84277344,3,8,10,0,-16,-9,0,-3
20.73712694644928,false,-0.21240234,0.1875,0.82373047,0.2930296,0.13940421,0.1875,0.82373047,7,5,-36,-5,-12,8,2,8
20.765079975128174,false,-0.25097656,0.072265625,0.93603516,0.29278103,0.13586213,0.072265625,0.93603516,1,22,15,2,32,24,16,-2
20.79512393474579,false,-0.22851562,0.06738281,0.9267578,0.2917989,0.13152617,0.06738281,0.9267578,-43,-40,56,-5,-12,-26,-37,-6
20.79704999923706,false,-0.20996094,0.07910156,0.9526367,0.2911376,0.12799068,0.07910156,0.9526367,49,82,-5,-17,-24,98,58,-6
20.825225949287415,false,-0.23242188,-0.00390625,1.0546875,0.2919843,0.124325246,-0.00390625,1.0546875,38,35,-31,24,-11,48,30,3
20.85527193546295,false,-0.234375,-0.087890625,1.1069336,0.2908818,0.12011233,-0.087890625,1.1069336,-1,-39,-25,2,52,16,3,-4
20.857146978378296,false,-0.16601562,-0.061523438,1.0292969,0.2885696,0.11730769,-0.061523438,1.0292969,-50,-39,22,21,37,-52,-30,4
20.885268926620483,false,-0.20361328,0.041503906,0.9555664,0.28673333,0.11687831,0.041503906,0.9555664,32,-2,-26,-17,-3,-2,3,9
20.915279984474182,false,-0.19140625,0.10107422,0.9560547,0.28471914,0.116512075,0.10107422,0.9560547,17,-4,5,-2,-20,-33,-13,14
20.917070984840393,false,-0.23095703,0.0063476562,1.0019531,0.283866,0.11584125,0.0063476562,1.0019531,-23,-19,38,3,-25,-7,-12,-12
20.94515299797058,false,-0.1928711,0.00390625,1.0424805,0.2822229,0.115538046,0.00390625,1.0424805,8,17,-24,-10,10,-2,8,-1
20.97537899017334,false,-0.18896484,-0.012207031,0.9980469,0.2813066,0.11602601,-0.012207031,0.9980469,-12,2,-3,1,21,12,11,11
20.977150917053223,false,-0.234375,0.10498047,0.9609375,0.28087488,0.118282385,0.10498047,0.9609375,-11,-17,-2,4,-2,-18,-12,-17
21.005140900611877,false,-0.23876953,0.109375,0.95458984,0.28069484,0.12005365,0.109375,0.95458984,41,7,21,6,-21,-9,-11,-6
21.035173892974854,false,-0.2055664,0.07324219,0.97314453,0.28015223,0.12219276,0.07324219,0.97314453,11,16,-11,-14,5,-2,5,14
21.03722393512726,false,-0.27685547,0.04248047,1.0068359,0.28057337,0.12762213,0.04248047,1.0068359,-32,4,19,30,-1,-1,1,-11
21.065223932266235,false,-0.265625,0.055664062,1.0449219,0.2814927,0.1347039,0.055664062,1.0449219,-8,-55,-49,-28,0,-14,-6,9
21.095326900482178,false,-0.25830078,0.115234375,0.98535156,0.28045088,0.14196491,0.115234375,0.98535156,13,48,-32,-7,-1,-29,-3,-17
21.097177982330322,false,-0.20751953,0.33447266,0.9433594,0.27758747,0.14862038,0.33447266,0.9433594,-15,15,3,-10,-5,-4,-4,2
21.125202894210815,false,-0.20263672,0.44628906,0.8251953,0.27574235,0.15434979,0.44628906,0.8251953,5,-4,-29,-25,0,10,-2,-3
21.18500292301178,false,-0.2421875,0.5131836,0.93652344,0.27690396,0.16021003,0.5131836,0.93652344,18,-13,18,-3,7,8,-4,-1
21.21652090549469,false,-0.2758789,0.27734375,0.95458984,0.27897993,0.16314009,0.27734375,0.95458984,0,-12,-19,-28,-5,27,5,24
21.245330929756165,false,-0.26220703,0.55810547,0.9916992,0.27465832,0.16986091,0.55810547,0.9916992,-33,-3,29,39,10,1,3,-9
21.275354981422424,false,-0.21191406,0.4482422,0.8623047,0.27428192,0.16875601,0.4482422,0.8623047,51,8,-10,4,16,6,3,12
21.277341961860657,false,-0.13964844,0.3984375,0.8564453,0.27483657,0.16723344,0.3984375,0.8564453,5,-4,33,40,-9,3,1,-5
21.305187940597534,false,-0.15478516,0.49414062,0.7529297,0.27245283,0.16515622,0.49414062,0.7529297,-108,-28,5,2,9,-2,1,15
21.335349917411804,false,-0.15917969,0.6376953,0.8486328,0.27244857,0.16533673,0.6376953,0.8486328,49,-1,17,4,0,5,8,22
21.337178945541382,false,-0.27392578,0.4892578,0.8613281,0.27428797,0.16692871,0.4892578,0.8613281,0,2,-9,10,1,0,3,11
21.365187883377075,false,-0.17333984,0.39208984,0.7866211,0.2734901,0.1654612,0.39208984,0.7866211,-10,-9,-12,-3,-5,-8,-9,-35
21.3954598903656,false,-0.11669922,0.48095703,0.7373047,0.27256894,0.16710563,0.48095703,0.7373047,12,3,-2,13,-11,-1,-5,-2
21.397573947906494,false,-0.21826172,0.53808594,0.8017578,0.27385694,0.16973393,0.53808594,0.8017578,34,15,33,18,-5,-4,0,-2
21.425227999687195,false,-0.21533203,0.58251953,0.8183594,0.2729463,0.17065246,0.58251953,0.8183594,-22,1,-3,-17,2,-2,-7,-21
21.455212950706482,false,-0.17773438,0.5209961,0.88964844,0.2735509,0.17254092,0.5209961,0.88964844,22,23,-6,5,0,11,1,-18
21.45718491077423,false,-0.24658203,0.4477539,0.91015625,0.2747114,0.17473868,0.4477539,0.91015625,-58,-32,-15,-9,-5,-3,-5,-42
21.48517596721649,false,-0.14501953,0.4873047,0.8276367,0.27379426,0.17400524,0.4873047,0.8276367,0,3,3,3,-8,-6,-4,25
21.515100955963135,false,-0.15917969,0.6035156,0.7919922,0.27361873,0.17346072,0.6035156,0.7919922,-17,-28,-32,-6,1,-1,-4,4
21.517181992530823,false,-0.20996094,0.63427734,0.81640625,0.27508223,0.17266645,0.63427734,0.81640625,-20,15,-19,-4,3,-1,-2,25
21.545222997665405,false,-0.16845703,0.47216797,0.8334961,0.27684516,0.17040382,0.47216797,0.8334961,15,2,12,-3,3,8,1,4
21.575179934501648,false,-0.19238281,0.35107422,0.8076172,0.27782854,0.16827182,0.35107422,0.8076172,-1,-31,29,11,-11,-13,-15,-18
21.57715892791748,false,-0.17626953,0.46923828,0.70214844,0.27850482,0.16687095,0.46923828,0.70214844,50,14,-10,-8,-3,-4,-3,-13
21.605214953422546,false,-0.19726562,0.61376953,0.74365234,0.2805184,0.16687061,0.61376953,0.74365234,-17,16,-9,2,10,9,-4,-11
21.635478973388672,false,-0.22851562,0.5097656,0.8520508,0.28331944,0.16582915,0.5097656,0.8520508,-20,-5,-13,0,3,4,5,1
21.63716697692871,false,-0.19921875,0.3544922,0.9194336,0.28570676,0.16314766,0.3544922,0.9194336,-66,-22,15,3,10,-12,-7,14
21.665241956710815,false,-0.16357422,0.39453125,0.8574219,0.2869879,0.16015658,0.39453125,0.8574219,48,20,19,12,3,2,3,-4
21.695146918296814,false,-0.16308594,0.3857422,0.8095703,0.28905934,0.1569807,0.3857422,0.8095703,34,-2,-35,-20,-12,-6,3,10
21.69711697101593,false,-0.20947266,0.3984375,0.8666992,0.29070392,0.15490375,0.3984375,0.8666992,-8,-23,18,5,-10,-12,-14,0
21.725128889083862,false,-0.21679688,0.33740234,0.92871094,0.29240966,0.1522166,0.33740234,0.92871094,1,-17,-4,6,2,-6,2,-15
21.755207896232605,false,-0.20605469,0.28857422,0.9267578,0.2930946,0.14904977,0.28857422,0.9267578,-8,-12,0,-6,-17,19,20,48
21.75719392299652,false,-0.16894531,0.37109375,0.9091797,0.29387942,0.14605471,0.37109375,0.9091797,11,-103,-2,-3,-3,5,8,-3
21.78515899181366,false,-0.18115234,0.3388672,0.8911133,0.29545993,0.14306095,0.3388672,0.8911133,1,120,-4,4,2,-3,-7,-6
21.815096974372864,false,-0.20117188,0.27001953,0.91259766,0.29619867,0.14001231,0.27001953,0.91259766,5,33,-7,-7,5,8,10,-7
21.81714689731598,false,-0.2084961,0.22363281,0.9614258,0.29626718,0.13690303,0.22363281,0.9614258,16,9,2,-21,-7,9,7,-5
21.845035910606384,false,-0.20361328,0.20751953,0.9404297,0.29589224,0.13348109,0.20751953,0.9404297,-46,-8,1,4,15,1,0,-12
21.875199913978577,false,-0.19873047,0.19091797,0.86328125,0.29545596,0.1307916,0.19091797,0.86328125,30,10,46,54,-11,-43,-12,7
21.87706995010376,false,-0.1875,0.26513672,0.8618164,0.29485187,0.1288413,0.26513672,0.8618164,58,21,-33,0,6,-14,1,14
21.90518295764923,false,-0.20166016,0.2290039,0.9941406,0.2946073,0.12658289,0.2290039,0.9941406,32,57,15,-1,12,4,4,1
21.935292959213257,false,-0.2055664,0.114746094,1.0473633,0.29473627,0.12261859,0.114746094,1.0473633,-9,-10,-11,-12,1,11,2,1
21.93714988231659,false,-0.17236328,0.020507812,0.95703125,0.2938181,0.11803992,0.020507812,0.95703125,-27,-49,-4,-3,-25,-20,-14,-23
21.965078949928284,false,-0.20166016,0.095214844,0.9277344,0.29185915,0.11620657,0.095214844,0.9277344,-19,3,1,7,27,32,17,1
21.99529194831848,false,-0.20605469,0.18945312,1.0209961,0.29113525,0.11511134,0.18945312,1.0209961,-24,-26,-13,-7,-8,-4,-9,-6
21.997314929962158,false,-0.19091797,0.14990234,1.0429688,0.29040402,0.1123042,0.14990234,1.0429688,21,14,-5,1,9,7,10,8
22.025197982788086,false,-0.15429688,0.01171875,0.9790039,0.28949234,0.109009765,0.01171875,0.9790039,-14,-21,16,3,-15,6,-7,-2
22.0550799369812,false,-0.17089844,-0.0029296875,0.9760742,0.28807735,0.10760178,-0.0029296875,0.9760742,-5,27,-10,-2,1,11,15,11
22.057326912879944,false,-0.18945312,0.08886719,0.96972656,0.28648943,0.10796758,0.08886719,0.96972656,-19,-7,-28,-15,-18,4,11,-2
22.085182905197144,false,-0.2006836,0.15625,0.9785156,0.28503272,0.1091303,0.15625,0.9785156,0,-11,-4,-12,14,-17,-3,0
22.11513090133667,false,-0.17675781,0.04736328,0.95703125,0.28422987,0.10943186,0.04736328,0.95703125,7,-4,-6,-6,7,-8,-17,-9
22.117093920707703,false,-0.18164062,0.022460938,0.9838867,0.2827025,0.1117505,0.022460938,0.9838867,2,25,-18,4,-8,34,15,-3
22.174927949905396,false,-0.15332031,0.05908203,0.8823242,0.28100497,0.11498986,0.05908203,0.8823242,-8,-6,54,9,-17,-6,-12,-8
22.176649928092957,false,-0.1953125,0.21923828,0.9448242,0.27838135,0.12023926,0.21923828,0.9448242,14,-5,3,4,-3,-12,-12,-5
22.178947925567627,false,-0.25976562,0.34228516,1.0356445,0.2776448,0.12512022,0.34228516,1.0356445,-2,11,9,17,10,-16,-5,0
22.20512294769287,false,-0.17138672,0.1430664,0.9873047,0.27795225,0.1260978,0.1430664,0.9873047,-6,-21,-12,-9,-2,1,-2,16
22.235237956047058,false,-0.20996094,0.1015625,1.0327148,0.27746367,0.1298818,0.1015625,1.0327148,-21,-26,31,16,4,-6,-5,-7
22.237201929092407,false,-0.17822266,0.12890625,0.9736328,0.2771499,0.13659137,0.12890625,0.9736328,-9,45,-17,-16,7,-17,0,8
22.26521396636963,false,-0.26660156,0.36669922,1.0458984,0.27722204,0.14471455,0.36669922,1.0458984,13,3,-23,-25,1,2,0,-2
22.295124888420105,false,-0.24414062,0.37451172,0.9223633,0.27776742,0.14965628,0.37451172,0.9223633,-23,-23,13,6,-11,-1,-5,-6
22.29722797870636,false,-0.16113281,0.3623047,0.9472656,0.27801076,0.15228032,0.3623047,0.9472656,14,-26,-10,-20,1,11,-4,-7
22.325236916542053,false,-0.22070312,0.36865234,1.0131836,0.27763477,0.15526551,0.36865234,1.0131836,-7,2,8,10,-4,29,-5,-16
22.355191946029663,false,-0.25976562,0.34570312,0.9658203,0.27708465,0.15734014,0.34570312,0.9658203,3,-23,-32,4,-4,-16,-7,-26
22.357127904891968,false,-0.20214844,0.34228516,0.8798828,0.27599466,0.15862674,0.34228516,0.8798828,-6,-4,15,1,4,-18,-1,4
22.385092973709106,false,-0.18017578,0.47509766,0.98095703,0.2748378,0.161558,0.47509766,0.98095703,29,-10,8,28,5,-9,1,9
22.415486931800842,false,-0.2680664,0.515625,1.0444336,0.27446878,0.1647301,0.515625,1.0444336,-62,-11,-8,0,6,-2,9,8
22.417054891586304,false,-0.20703125,0.2998047,0.86376953,0.2736664,0.16478574,0.2998047,0.86376953,-62,-19,7,-7,-2,-3,-3,-17
22.44513690471649,false,-0.08154297,0.24023438,0.6142578,0.26971266,0.16308491,0.24023438,0.6142578,17,26,-14,-10,2,5,12,47
22.475228905677795,false,-0.13476562,0.7705078,0.7050781,0.2647716,0.1665046,0.7705078,0.7050781,13,0,-8,-1,6,0,-2,14
22.477215886116028,false,-0.26513672,0.9790039,0.78125,0.26812103,0.17107746,0.9790039,0.78125,50,15,4,38,-16,3,-7,-33
22.505265951156616,false,-0.17480469,0.51953125,0.9003906,0.27428278,0.17095372,0.51953125,0.9003906,2,-11,-32,-6,-1,-1,3,7
22.535311937332153,false,-0.14697266,0.2734375,0.9165039,0.27549872,0.16979118,0.2734375,0.9165039,11,-6,3,-30,0,-2,-2,-2
22.537197947502136,false,-0.11279297,0.3618164,0.6928711,0.27416354,0.1694907,0.3618164,0.6928711,-9,-7,-10,-5,2,3,-6,-6
22.565173983573914,false,-0.16894531,0.77490234,0.73779297,0.27453065,0.17235982,0.77490234,0.73779297,17,51,35,-8,-17,3,2,-12
22.595184922218323,false,-0.20703125,0.6503906,0.80126953,0.2781963,0.17339969,0.6503906,0.80126953,-57,-43,-3,-33,-10,-2,4,-26
22.59739899635315,false,-0.17089844,0.48291016,0.8798828,0.28014654,0.17193307,0.48291016,0.8798828,45,14,9,16,7,0,-8,6
22.625186920166016,false,-0.16308594,0.40283203,0.734375,0.28086925,0.1705234,0.40283203,0.734375,-40,-40,-36,-23,-15,-9,-12,-7
22.655289888381958,false,-0.17529297,0.5361328,0.69921875,0.28167412,0.17120172,0.5361328,0.69921875,-40,-39,-3,-5,-7,-9,-7,-21
22.65714192390442,false,-0.23242188,0.609375,0.76708984,0.28337467,0.17388207,0.609375,0.76708984,0,52,-22,4,10,-5,-8,20
22.68515396118164,false,-0.18603516,0.54248047,0.8730469,0.2864303,0.17510517,0.54248047,0.8730469,-29,-35,32,20,8,3,-5,-38
22.715194940567017,false,-0.16552734,0.4897461,0.83935547,0.28821,0.17443968,0.4897461,0.83935547,58,26,-8,-9,-2,2,18,54
22.717123985290527,false,-0.15771484,0.48339844,0.76464844,0.28918177,0.17333817,0.48339844,0.76464844,10,30,18,29,22,17,10,6
22.74515390396118,false,-0.20996094,0.5439453,0.7578125,0.2900891,0.1737605,0.5439453,0.7578125,-38,-34,-1,-20,5,-6,-4,-27
22.775184988975525,false,-0.22851562,0.51708984,0.8178711,0.2916778,0.17437193,0.51708984,0.8178711,-10,22,-27,-17,8,2,-16,-6
22.777078986167908,false,-0.19384766,0.48242188,0.8808594,0.29302064,0.1738227,0.48242188,0.8808594,23,3,-3,12,3,-8,-4,31
22.805152893066406,false,-0.19433594,0.4189453,0.88964844,0.29339522,0.17272905,0.4189453,0.88964844,17,40,2,8,1,3,10,-79
22.835343956947327,false,-0.21191406,0.40771484,0.84228516,0.29290932,0.17230318,0.40771484,0.84228516,8,7,-3,6,-2,4,-2,-4
22.837289929389954,false,-0.21923828,0.47460938,0.82666016,0.29217273,0.17285004,0.47460938,0.82666016,-17,5,0,-8,-10,-3,16,74
22.865055918693542,false,-0.20361328,0.4921875,0.85839844,0.2920416,0.17351604,0.4921875,0.85839844,-40,-44,7,-23,-16,-11,-11,-36
22.895387887954712,false,-0.18652344,0.4765625,0.89697266,0.29198354,0.17315161,0.4765625,0.89697266,46,43,-3,12,5,3,5,6
22.89735496044159,false,-0.17333984,0.47998047,0.8774414,0.2917457,0.17211774,0.47998047,0.8774414,22,10,-10,0,-6,10,-5,4
22.925230979919434,false,-0.1772461,0.46191406,0.8496094,0.29223672,0.17102073,0.46191406,0.8496094,22,23,7,0,-4,-2,4,-10
22.955338954925537,false,-0.18701172,0.47705078,0.83691406,0.29272732,0.16986242,0.47705078,0.83691406,-10,-4,20,-3,-8,-15,-19,-9
22.95793092250824,false,-0.18359375,0.4741211,0.8535156,0.29388446,0.16864024,0.4741211,0.8535156,41,15,12,5,2,15,18,5
22.985789895057678,false,-0.19970703,0.39501953,0.8847656,0.29528204,0.1665005,0.39501953,0.8847656,-77,-58,9,-9,-5,-10,-5,6
23.015283942222595,false,-0.2109375,0.32373047,0.8881836,0.2957159,0.16412385,0.32373047,0.8881836,12,11,15,29,6,-3,-3,-18
23.017833948135376,false,-0.21679688,0.34570312,0.8730469,0.2956428,0.16204204,0.34570312,0.8730469,-19,-14,-32,-21,0,-30,-18,29
23.04572093486786,false,-0.22607422,0.39404297,0.8359375,0.29564792,0.16003072,0.39404297,0.8359375,6,7,4,11,-7,-7,-1,2
23.07521390914917,false,-0.19482422,0.4248047,0.8574219,0.29639015,0.15735045,0.4248047,0.8574219,-24,22,-10,-33,18,35,11,5
23.077199935913086,false,-0.20703125,0.3330078,0.93310547,0.2976063,0.15393008,0.3330078,0.93310547,37,28,3,-53,10,13,11,1
23.10522997379303,false,-0.19628906,0.21435547,0.9370117,0.2979758,0.14923204,0.21435547,0.9370117,-13,-28,-15,35,-6,-33,-16,-1
23.13524091243744,false,-0.21044922,0.2944336,0.9111328,0.29735726,0.1455659,0.2944336,0.9111328,43,7,11,32,2,43,20,-14
23.137730956077576,false,-0.2319336,0.3125,0.8378906,0.29790202,0.14165756,0.3125,0.8378906,6,20,-12,0,-8,4,4,1
23.16586399078369,false,-0.21435547,0.21533203,0.8388672,0.29912874,0.13671666,0.21533203,0.8388672,-94,-50,-7,-6,-24,-48,-26,-8
23.19513189792633,false,-0.22753906,0.09423828,1.0712891,0.3000412,0.13232087,0.09423828,1.0712891,58,22,5,4,13,23,16,26
23.224897980690002,false,-0.23095703,-0.032226562,1.043457,0.299618,0.1269516,-0.032226562,1.043457,19,-8,4,9,0,-5,-3,22
23.226552963256836,false,-0.17333984,-0.0009765625,0.94677734,0.29717663,0.12298437,-0.0009765625,0.94677734,49,67,14,1,36,22,21,-18
23.255841970443726,false,-0.22851562,0.09765625,0.9448242,0.29540136,0.12292114,0.09765625,0.9448242,-69,-42,-18,-3,14,-3,-8,15
23.25780498981476,false,-0.23388672,0.15136719,1.0517578,0.29388428,0.123168945,0.15136719,1.0517578,27,-7,11,4,24,10,-4,3
23.285170912742615,false,-0.18652344,0.072265625,1.0180664,0.29191646,0.12133179,0.072265625,1.0180664,-14,-17,-11,9,50,-41,-22,-18
23.315396904945374,false,-0.18701172,0.032714844,0.9511719,0.2893054,0.12115426,0.032714844,0.9511719,8,0,4,7,26,21,7,-1
23.31722593307495,false,-0.23632812,0.099609375,0.9145508,0.2875987,0.1226811,0.099609375,0.9145508,-11,-12,-33,-13,-28,-1,2,-5
23.345852971076965,false,-0.2319336,0.13769531,0.92626953,0.28509334,0.124816075,0.13769531,0.92626953,55,5,14,1,-21,-7,0,5
23.37522292137146,false,-0.22802734,0.13574219,1.0605469,0.2836296,0.12670864,0.13574219,1.0605469,-21,-11,22,7,-16,-20,0,46
23.377209901809692,false,-0.2290039,0.11328125,1.0444336,0.28288737,0.12755871,0.11328125,1.0444336,0,4,31,-8,-46,-3,0,-1
23.405203938484192,false,-0.15966797,0.052246094,0.88623047,0.28099668,0.12804757,0.052246094,0.88623047,-12,5,-16,-1,-7,23,4,-8
23.435295939445496,false,-0.2265625,0.1171875,0.9375,0.279968,0.13104236,0.1171875,0.9375,3,14,-24,-15,-16,6,3,-10
23.437757968902588,false,-0.2861328,0.2475586,1.0292969,0.27947745,0.13390993,0.2475586,1.0292969,11,-6,-3,6,-6,-9,-2,1
23.46616494655609,false,-0.23291016,0.1381836,0.98779297,0.27940995,0.13402888,0.1381836,0.98779297,0,6,-14,0,-11,-6,3,-7
23.495616912841797,false,-0.21533203,-0.009277344,0.9165039,0.27905273,0.13494873,-0.009277344,0.9165039,-12,-20,2,-27,-12,-24,-23,-40
23.49783194065094,false,-0.19824219,0.16064453,0.96240234,0.27794522,0.1387895,0.16064453,0.96240234,-20,-6,22,6,5,13,5,-13
23.5258709192276,false,-0.33447266,0.27197266,0.9658203,0.2783852,0.1427632,0.27197266,0.9658203,12,3,-12,-5,-9,0,3,5
23.555346965789795,false,-0.25585938,0.203125,0.98095703,0.2785606,0.14404097,0.203125,0.98095703,-5,2,-13,7,3,-3,1,-1
23.557888984680176,false,-0.2783203,0.02734375,1.0039062,0.2789238,0.14538217,0.02734375,1.0039062,22,2,-10,-19,3,2,2,10
23.585837960243225,false,-0.22802734,0.020507812,0.95654297,0.27795082,0.14697093,0.020507812,0.95654297,28,6,-9,-3,0,7,6,18
23.615450978279114,false,-0.25634766,0.27294922,0.9140625,0.27544913,0.14990097,0.27294922,0.9140625,-24,-6,14,7,1,-3,-3,-5
23.618172883987427,false,-0.27539062,0.4169922,0.9453125,0.27489153,0.15087298,0.4169922,0.9453125,10,-38,18,5,-5,4,0,9
23.64582097530365,false,-0.26757812,0.21533203,0.9194336,0.27581808,0.1494752,0.21533203,0.9194336,-7,27,-19,1,-3,1,1,-4
23.675257921218872,false,-0.19238281,0.06298828,0.9321289,0.27666226,0.14776072,0.06298828,0.9321289,-21,12,6,8,-1,-5,-4,-7
23.677814960479736,false,-0.23046875,0.20166016,0.9394531,0.27630582,0.14904767,0.20166016,0.9394531,-2,8,-30,-16,-4,-4,0,0
23.70583188533783,false,-0.29052734,0.3647461,0.9628906,0.27727157,0.15130007,0.3647461,0.9628906,-1,-9,-14,6,2,-7,-5,-9
23.735322952270508,false,-0.2890625,0.31054688,1.0014648,0.27911112,0.1521592,0.31054688,1.0014648,3,-14,-2,-24,-6,-1,-4,-7
23.766164898872375,false,-0.25341797,0.08496094,0.97314453,0.2812374,0.15215382,0.08496094,0.97314453,-1,0,-9,-3,5,-3,5,-3
23.767393946647644,false,-0.18457031,-0.047851562,0.80859375,0.28160515,0.15245984,-0.047851562,0.80859375,61,24,46,51,5,-21,-1,4
23.79522693157196,false,-0.2368164,0.25146484,0.95751953,0.27996743,0.15887403,0.25146484,0.95751953,22,18,26,22,9,12,6,28
23.824834942817688,false,-0.45214844,0.48242188,1.1435547,0.28064167,0.16674925,0.48242188,1.1435547,-7,-16,-17,-9,-10,3,-11,-49
23.82656991481781,false,-0.34472656,0.3623047,1.246582,0.28203106,0.16960923,0.3623047,1.246582,-39,-10,6,-27,-3,-6,-1,10
23.855272889137268,false,-0.16699219,-0.33203125,0.46972656,0.2832657,0.16516204,-0.33203125,0.46972656,62,25,26,27,2,12,5,37
23.88482892513275,false,0.13085938,0.26708984,0.7446289,0.27557316,0.17053188,0.26708984,0.7446289,-44,-40,-16,-36,-4,28,-5,-28
23.886669993400574,false,-0.51416016,0.8203125,0.9501953,0.27361017,0.18047407,0.8203125,0.9501953,-24,-15,-3,18,-2,-45,10,41
23.91503596305847,false,-0.38720703,0.64453125,1.0605469,0.27752662,0.18005356,0.64453125,1.0605469,-28,16,12,6,6,-3,8,6
23.945276975631714,false,-0.19140625,0.10253906,0.9692383,0.27898434,0.1766311,0.10253906,0.9692383,1,13,-1,9,-2,9,3,15
23.946558952331543,false,-0.03857422,-0.05126953,0.8017578,0.2783212,0.17340143,-0.05126953,0.8017578,-18,18,30,3,11,13,3,-5
23.97516393661499,false,-0.27148438,0.42382812,0.8613281,0.27410224,0.17895074,0.42382812,0.8613281,-18,19,-24,-19,10,-2,-7,-14
24.004791975021362,false,-0.37695312,0.7182617,0.90283203,0.27495864,0.18438402,0.7182617,0.90283203,-44,11,42,7,-16,-32,-44,-64
24.0348219871521,false,-0.20361328,0.4326172,0.79833984,0.27623972,0.18224742,0.4326172,0.79833984,107,14,-65,-26,-15,3,-2,-13
24.036579966545105,false,-0.171875,0.3076172,0.77685547,0.275693,0.18090637,0.3076172,0.77685547,-24,-13,-14,1,11,10,9,22
24.0645809173584,false,-0.28027344,0.34326172,0.8569336,0.27660117,0.18261048,0.34326172,0.8569336,1,-10,-9,-23,-8,0,-9,-44
24.066383957862854,false,-0.3022461,0.4008789,0.92529297,0.27775675,0.18456085,0.4008789,0.92529297,11,-26,17,36,11,13,17,47
24.095204949378967,false,-0.20703125,0.38623047,0.82714844,0.2780673,0.18377098,0.38623047,0.82714844,-14,-4,9,3,-14,-5,-4,-16
24.124876976013184,false,-0.21875,0.3491211,0.8017578,0.27825835,0.18273865,0.3491211,0.8017578,34,7,-22,-12,-4,-3,0,21
24.12651491165161,false,-0.32910156,0.31591797,0.8691406,0.27843505,0.18438235,0.31591797,0.8691406,-24,-38,14,8,2,-15,-1,-14
24.15524995326996,false,-0.2705078,0.35302734,0.94677734,0.2786867,0.18554698,0.35302734,0.94677734,-66,-26,-11,-10,-6,11,1,-3
24.18482494354248,false,-0.24414062,0.41015625,0.9477539,0.2781966,0.18548475,0.41015625,0.9477539,44,25,-4,0,4,12,7,0
24.18658697605133,false,-0.24169922,0.41259766,0.84716797,0.27880737,0.18438639,0.41259766,0.84716797,3,2,-17,-11,0,1,3,6
24.245332956314087,false,-0.23583984,0.33740234,0.8100586,0.27984032,0.1826744,0.33740234,0.8100586,-68,-17,-34,-28,-14,-16,-24,-7
24.247251987457275,false,-0.27246094,0.25048828,0.90625,0.2804473,0.18181776,0.25048828,0.90625,-10,-26,-7,-1,-2,-25,-18,6
24.27516496181488,false,-0.22509766,0.3828125,0.90527344,0.2805714,0.17998804,0.3828125,0.90527344,8,1,5,-5,-10,-6,1,21
24.305291891098022,false,-0.23779297,0.36621094,0.8388672,0.2819821,0.17803934,0.36621094,0.8388672,-6,11,33,20,-3,-5,-6,-3
24.30719792842865,false,-0.25439453,0.2890625,0.8540039,0.2833154,0.17522587,0.2890625,0.8540039,2,10,1,9,7,7,7,-10
24.335116982460022,false,-0.29833984,0.21289062,0.9375,0.2835664,0.17303288,0.21289062,0.9375,-11,-10,0,-6,25,9,9,1
24.36526894569397,false,-0.2919922,0.20947266,0.9716797,0.28356558,0.17065203,0.20947266,0.9716797,33,17,6,-33,21,16,17,10
24.367222905158997,false,-0.25585938,0.27392578,0.90527344,0.28362054,0.16790189,0.27392578,0.90527344,-19,-24,-31,-11,-3,29,-8,-22
24.395059943199158,false,-0.27929688,0.23486328,0.8930664,0.28459865,0.16552253,0.23486328,0.8930664,28,33,15,34,-21,-20,1,-8
24.425270915031433,false,-0.29296875,0.14013672,0.9453125,0.28526646,0.162774,0.14013672,0.9453125,-25,5,7,-4,1,-39,-16,-1
24.42708992958069,false,-0.2758789,0.099609375,0.96875,0.28430215,0.16027853,0.099609375,0.96875,14,-2,3,-2,11,25,10,11
24.45529294013977,false,-0.27294922,0.16894531,0.95214844,0.28319928,0.15893339,0.16894531,0.95214844,23,19,-4,-6,-10,37,16,6
24.485235929489136,false,-0.28027344,0.25341797,0.95214844,0.28308243,0.15814286,0.25341797,0.95214844,-23,-11,28,12,-30,-20,-15,-8
24.48725199699402,false,-0.2709961,0.17822266,0.9121094,0.28381413,0.15625036,0.17822266,0.9121094,20,-8,-14,-8,8,-14,-11,13
24.51512897014618,false,-0.27685547,0.084472656,1.0087891,0.28356642,0.15392908,0.084472656,1.0087891,5,19,-6,-6,-27,34,12,-9
24.545352935791016,false,-0.2631836,0.05078125,1.0029297,0.28222063,0.15197435,0.05078125,1.0029297,14,12,17,15,1,-29,-15,2
24.57520091533661,false,-0.23779297,0.09863281,0.89746094,0.28057095,0.15093581,0.09863281,0.89746094,-4,21,17,17,42,-1,10,16
24.577218890190125,false,-0.2758789,0.13183594,0.9316406,0.28009433,0.15088107,0.13183594,0.9316406,16,16,-44,-9,-36,-32,-1,-17
24.6058748960495,false,-0.28125,0.17675781,0.9980469,0.27922982,0.15087566,0.17675781,0.9980469,-8,1,59,25,10,-6,-1,-10
24.607767939567566,false,-0.2685547,0.079589844,1.0517578,0.27862248,0.14910726,0.079589844,1.0517578,-9,-2,1,-7,5,32,4,7
24.63531196117401,false,-0.20751953,0.075683594,0.9682617,0.27715105,0.14745584,0.075683594,0.9682617,20,3,-20,-11,29,-5,-4,-1
24.665442943572998,false,-0.22558594,0.12548828,0.8666992,0.2764305,0.14801148,0.12548828,0.8666992,4,-13,-27,-6,-2,27,11,-5
24.667224884033203,false,-0.2607422,0.21533203,0.88964844,0.27654442,0.149594,0.21533203,0.88964844,3,1,7,7,-11,-3,-3,2
24.695202946662903,false,-0.30371094,0.24121094,1.0019531,0.27710298,0.15014832,0.24121094,1.0019531,-19,-12,4,-6,-3,-3,-3,-16
24.725308895111084,false,-0.25585938,0.09375,0.9404297,0.2778335,0.14880449,0.09375,0.9404297,15,-5,-27,-8,10,-1,0,19
24.727168917655945,false,-0.22607422,-0.015136719,0.9291992,0.27770346,0.14867817,-0.015136719,0.9291992,25,-1,3,4,9,-28,-15,-7
24.755167961120605,false,-0.2783203,0.107421875,0.90234375,0.27673635,0.15167397,0.107421875,0.90234375,1,3,-19,-5,-2,-2,-1,-13
24.785313963890076,false,-0.31591797,0.22607422,0.9355469,0.2763659,0.15423512,0.22607422,0.9355469,-19,7,3,-1,-6,14,10,7
24.787231922149658,false,-0.28808594,0.32080078,1.0068359,0.275817,0.15472364,0.32080078,1.0068359,-13,31,-2,2,6,12,1,-13
24.81557595729828,false,-0.2578125,0.14794922,1.0161133,0.276542,0.15447536,0.14794922,1.0161133,-30,-11,17,-10,-9,-7,-3,4
24.84536898136139,false,-0.25585938,-0.00390625,0.9970703,0.27728224,0.1556394,-0.00390625,0.9970703,12,-101,-17,-7,-4,-5,-1,-13
24.84717297554016,false,-0.26611328,0.03564453,0.9458008,0.27575773,0.15911916,0.03564453,0.9458008,-54,94,-16,-21,-16,-8,1,28
24.87511396408081,false,-0.27929688,0.26660156,0.92529297,0.2726954,0.1635684,0.26660156,0.92529297,34,22,21,18,13,3,-1,8
24.905263900756836,false,-0.29296875,0.4243164,0.9589844,0.27051258,0.16668995,0.4243164,0.9589844,29,-7,7,4,2,3,0,3
24.907179951667786,false,-0.29492188,0.34277344,0.9760742,0.27069137,0.16778593,0.34277344,0.9760742,-23,-12,-32,-13,-2,-11,-3,-7
24.935191988945007,false,-0.26953125,0.21240234,1.0629883,0.2711755,0.16875991,0.21240234,1.0629883,6,-4,-22,2,0,5,1,4
24.965536952018738,false,-0.2421875,0.0014648438,0.85058594,0.27038807,0.16912986,0.0014648438,0.85058594,-10,-4,20,13,2,61,0,-13
24.96714198589325,false,-0.15771484,0.2553711,0.8417969,0.2657985,0.17412701,0.2553711,0.8417969,54,-19,2,-3,-2,-47,-5,-35
24.99520194530487,false,-0.31591797,0.63623047,0.8901367,0.26299232,0.18102466,0.63623047,0.8901367,26,5,-31,-5,7,-19,16,55
25.025222897529602,false,-0.33251953,0.70410156,1.0351562,0.26409602,0.18554471,0.70410156,1.0351562,-18,-5,15,-3,-4,-4,-2,3
25.0272479057312,false,-0.26220703,0.39746094,1.0439453,0.2653796,0.18542393,0.39746094,1.0439453,89,20,15,9,4,4,0,-10
25.055181980133057,false,-0.115234375,-0.0107421875,0.70166016,0.26360637,0.18090513,-0.0107421875,0.70166016,-37,-6,-25,4,-5,-12,-7,-15
25.085218906402588,false,-0.11425781,0.4423828,0.6826172,0.2567038,0.18102318,0.4423828,0.6826172,-29,36,33,9,3,5,0,9
25.087453961372375,false,-0.29492188,0.8847656,0.6777344,0.25586334,0.1868315,0.8847656,0.6777344,-47,-18,-22,9,-17,-13,-21,-41
25.11595892906189,false,-0.30615234,0.6435547,0.8774414,0.26158774,0.19048421,0.6435547,0.8774414,-47,4,58,13,3,8,16,14
25.145195960998535,false,-0.26416016,0.3100586,1.0068359,0.26336882,0.19091949,0.3100586,1.0068359,34,12,3,-10,-1,4,1,39
25.147292971611023,false,-0.15917969,0.3310547,0.80615234,0.2615855,0.18938401,0.3310547,0.80615234,10,15,-11,-26,0,2,7,-11
25.17522096633911,false,-0.17626953,0.5644531,0.6699219,0.26073462,0.18987484,0.5644531,0.6699219,-21,-37,-8,0,2,-3,-2,16
25.205197930336,false,-0.24560547,0.63964844,0.74609375,0.26201233,0.19225223,0.63964844,0.74609375,-17,-27,3,9,17,9,-20,-21
25.207289934158325,false,-0.24365234,0.49658203,0.8779297,0.26342183,0.19335504,0.49658203,0.8779297,-39,-42,-2,-15,-8,-8,-4,-19
25.23528289794922,false,-0.24169922,0.46826172,0.8544922,0.26323998,0.19335596,0.46826172,0.8544922,38,-5,-9,14,4,-2,9,14
25.265630960464478,false,-0.22949219,0.5732422,0.7685547,0.2628686,0.19323009,0.5732422,0.7685547,-29,11,-20,-21,-12,-3,22,-36
25.26724898815155,false,-0.2290039,0.55810547,0.7607422,0.26379406,0.19329843,0.55810547,0.7607422,54,32,-11,-8,-3,6,-6,26
25.295183897018433,false,-0.22949219,0.5541992,0.7817383,0.26464507,0.19317381,0.5541992,0.7817383,82,73,-16,-12,-10,-5,8,52
25.325240969657898,false,-0.22265625,0.56640625,0.7836914,0.26603988,0.19219077,0.56640625,0.7836914,-52,8,-25,-34,-6,0,-10,-30
25.32728099822998,false,-0.22265625,0.50878906,0.80810547,0.2679408,0.1910375,0.50878906,0.80810547,-106,-104,15,8,-2,-2,-6,3
25.35531997680664,false,-0.2109375,0.4794922,0.8334961,0.2696498,0.18938963,0.4794922,0.8334961,-44,-47,10,-2,-11,-11,15,40
25.385432958602905,false,-0.21044922,0.47851562,0.7973633,0.27069214,0.18750085,0.47851562,0.7973633,32,31,1,10,11,2,-3,-23
25.387268900871277,false,-0.23291016,0.5024414,0.7783203,0.27171656,0.1859049,0.5024414,0.7783203,4,-43,-2,6,-12,-10,-25,-6
25.415217995643616,false,-0.23925781,0.5,0.81640625,0.27330524,0.1845024,0.5,0.81640625,-44,20,19,3,7,12,9,-28
25.445308923721313,false,-0.22802734,0.40966797,0.8901367,0.2748928,0.18224466,0.40966797,0.8901367,50,24,-2,-1,-2,-2,24,36
25.44719398021698,false,-0.21386719,0.37451172,0.8925781,0.275505,0.17974353,0.37451172,0.8925781,31,8,13,20,14,13,36,6
25.475302934646606,false,-0.21728516,0.4663086,0.84472656,0.27562487,0.17711766,0.4663086,0.84472656,-3,6,1,-5,0,-20,-27,-23
25.50523293018341,false,-0.20800781,0.50097656,0.8227539,0.27685547,0.17401123,0.50097656,0.8227539,-13,16,-3,-2,-9,4,-17,-36
25.507211923599243,false,-0.2109375,0.44140625,0.88378906,0.27971327,0.17034252,0.44140625,0.88378906,53,76,0,3,18,7,1,-25
25.535250902175903,false,-0.20605469,0.26464844,0.9272461,0.28136796,0.16491458,0.26464844,0.9272461,56,39,3,1,11,47,15,-1
25.565489888191223,false,-0.22314453,0.28320312,0.90722656,0.28118056,0.16051766,0.28320312,0.90722656,-3,-46,-9,15,5,4,-3,2
25.56713593006134,false,-0.23583984,0.34375,0.88964844,0.2817353,0.1575911,0.34375,0.88964844,-25,3,-28,-22,-18,-29,-27,31
25.595090985298157,false,-0.234375,0.34521484,0.85302734,0.2828281,0.15423103,0.34521484,0.85302734,97,71,12,2,-1,-15,-7,22
25.625332951545715,false,-0.20996094,0.18603516,0.93896484,0.28356904,0.1504515,0.18603516,0.93896484,-5,3,-3,12,1,13,-4,-15
25.6272189617157,false,-0.25390625,0.08251953,0.98291016,0.2827714,0.14739756,0.08251953,0.98291016,-29,4,-3,-34,-19,-31,-17,3
25.655126929283142,false,-0.24560547,0.18652344,0.9248047,0.28057644,0.14538461,0.18652344,0.9248047,-40,-13,12,0,2,81,23,-6
25.68524694442749,false,-0.24267578,0.36767578,0.83447266,0.2795377,0.14483471,0.36767578,0.83447266,30,8,8,13,-9,-29,-4,-18
25.687304973602295,false,-0.2397461,0.29248047,0.95458984,0.28063387,0.1433076,0.29248047,0.95458984,-17,28,-9,-33,-6,-22,4,-2
25.715205907821655,false,-0.24072266,0.110839844,1.0498047,0.28124964,0.14013654,0.110839844,1.0498047,-81,-48,-7,13,30,42,12,-12
25.74535894393921,false,-0.21386719,0.076660156,0.9555664,0.2798996,0.13702019,0.076660156,0.9555664,-1,-22,-19,10,-9,-32,-16,-27
25.747275948524475,false,-0.2133789,0.1640625,0.88916016,0.27892724,0.13635087,0.1640625,0.88916016,2,-46,-4,12,4,-34,-5,7
25.775144934654236,false,-0.25097656,0.18359375,1.0004883,0.27929294,0.13604546,0.18359375,1.0004883,18,-35,-2,-5,-30,53,21,9
25.80530095100403,false,-0.23388672,0.12548828,1.046875,0.27856034,0.13421433,0.12548828,1.046875,42,-25,0,-1,20,-9,-17,20
25.807174921035767,false,-0.20751953,0.10253906,1.0454102,0.27812555,0.1327459,0.10253906,1.0454102,-85,-3,51,25,-2,-30,-25,-59
25.835184931755066,false,-0.19384766,0.063964844,0.9472656,0.27728063,0.13140771,0.063964844,0.9472656,46,14,-19,-12,22,-12,9,37
25.86532199382782,false,-0.2163086,0.123046875,0.8911133,0.2766023,0.13170956,0.123046875,0.8911133,10,-1,-10,-6,9,10,-13,-26
25.867302894592285,false,-0.25146484,0.1694336,0.8833008,0.2763648,0.13329963,0.1694336,0.8833008,-27,-2,-5,-6,-1,9,-5,-22
25.895179986953735,false,-0.2553711,0.14648438,1.0136719,0.27594313,0.13452303,0.14648438,1.0136719,-16,-27,-10,-9,-26,-11,-1,9
25.92528998851776,false,-0.23779297,0.11621094,1.0673828,0.27574337,0.13457595,0.11621094,1.0673828,34,3,3,1,-15,-11,-1,12
25.927218914031982,false,-0.19091797,0.083984375,0.91796875,0.27532887,0.13409388,0.083984375,0.91796875,-23,12,84,25,-16,-35,-8,-8
25.95514690876007,false,-0.18554688,0.10546875,0.890625,0.2744661,0.13518845,0.10546875,0.890625,-70,-11,-14,0,14,5,-1,-10
25.985383987426758,false,-0.27929688,0.26464844,0.9916992,0.2738648,0.13775638,0.26464844,0.9916992,27,2,-22,-1,9,4,7,41
25.98717498779297,false,-0.25683594,0.19677734,1.0039062,0.27453732,0.1375128,0.19677734,1.0039062,0,-1,2,-6,-5,-6,-8,-4
26.015095949172974,false,-0.19921875,0.037109375,1.0112305,0.27459437,0.1362901,0.037109375,1.0112305,3,14,3,3,-11,6,6,9
26.045286893844604,false,-0.1850586,-0.041503906,0.97509766,0.27349573,0.13744976,-0.041503906,0.97509766,-12,30,4,2,37,35,13,-9
26.047178983688354,false,-0.24804688,0.19140625,0.93310547,0.2719724,0.14221178,0.19140625,0.93310547,0,-8,-20,-14,0,4,6,11
26.07517397403717,false,-0.29345703,0.3618164,0.9638672,0.27154616,0.14611857,0.3618164,0.9638672,23,8,4,-2,-8,0,-7,1
26.1053329706192,false,-0.26367188,0.34033203,0.9814453,0.27135244,0.14660111,0.34033203,0.9814453,2,3,-44,-18,-7,-16,0,15
26.1072199344635,false,-0.23583984,0.05029297,0.99853516,0.2719003,0.14586796,0.05029297,0.99853516,-9,-31,-14,31,0,-2,1,3
26.13519299030304,false,-0.23535156,-0.026367188,0.9951172,0.2711113,0.14879996,-0.026367188,0.9951172,-20,26,-8,-14,-10,-18,2,19
26.16537892818451,false,-0.24609375,0.107910156,0.9580078,0.2687957,0.15569887,0.107910156,0.9580078,84,20,12,2,0,30,7,17
26.16712188720703,false,-0.2866211,0.4267578,0.95214844,0.2656851,0.16308537,0.4267578,0.95214844,-5,8,15,2,2,-22,-4,-41
26.19518792629242,false,-0.265625,0.5600586,0.9394531,0.26421595,0.16772127,0.5600586,0.9394531,11,3,-4,-3,-8,-16,-19,-79
26.22513496875763,false,-0.20947266,0.41259766,0.8730469,0.26415557,0.16912547,0.41259766,0.8730469,-19,-15,-10,15,-5,5,-1,10
26.227216958999634,false,-0.16748047,0.3359375,0.8613281,0.2632351,0.17003778,0.3359375,0.8613281,13,17,7,-1,4,0,6,16
26.255140900611877,false,-0.2397461,0.4038086,0.9038086,0.26263112,0.1733988,0.4038086,0.9038086,-24,-2,1,5,-4,-6,1,20
26.285404920578003,false,-0.28564453,0.47314453,0.91552734,0.26250207,0.17705615,0.47314453,0.91552734,-12,-18,4,8,-4,-6,6,5
26.28720200061798,false,-0.23291016,0.44726562,0.90771484,0.26176775,0.17888582,0.44726562,0.90771484,3,19,18,9,3,-5,-3,13
26.315239906311035,false,-0.20117188,0.48291016,0.7807617,0.26006773,0.18041779,0.48291016,0.7807617,23,-11,-1,6,3,-5,-15,-49
26.345342993736267,false,-0.19091797,0.53808594,0.7480469,0.25975543,0.18315932,0.53808594,0.7480469,-36,-9,-16,-12,2,3,1,22
26.347362995147705,false,-0.24658203,0.51220703,0.79589844,0.2607907,0.1873079,0.51220703,0.79589844,-60,-30,-20,-17,-9,-2,-1,-9
26.375141978263855,false,-0.24951172,0.5102539,0.8383789,0.26079178,0.19029927,0.5102539,0.8383789,71,29,-3,-20,-1,4,2,3
26.405438899993896,false,-0.1928711,0.5317383,0.81689453,0.26042655,0.19200888,0.5317383,0.81689453,15,11,-18,-32,-7,-2,-9,28
26.407320976257324,false,-0.19873047,0.5444336,0.7944336,0.26031142,0.19347884,0.5444336,0.7944336,-4,-38,-16,-5,-6,-10,-14,-18
26.43518090248108,false,-0.21777344,0.5493164,0.76171875,0.25957045,0.19457103,0.5493164,0.76171875,31,49,7,6,2,8,18,13
26.465311884880066,false,-0.21923828,0.61572266,0.7705078,0.2586546,0.1954252,0.61572266,0.7705078,2,-5,4,5,-14,-10,-8,-14
26.46720790863037,false,-0.23388672,0.5800781,0.77734375,0.25872874,0.19659477,0.5800781,0.77734375,-32,-27,3,-9,-5,1,8,2
26.49522089958191,false,-0.21435547,0.5541992,0.7915039,0.25860426,0.19714226,0.5541992,0.7915039,27,-12,12,6,0,-3,-1,0
26.52515995502472,false,-0.2084961,0.57714844,0.7758789,0.25768083,0.19744138,0.57714844,0.7758789,26,52,0,0,-1,4,-4,20
26.52724289894104,false,-0.21923828,0.6274414,0.70947266,0.25737697,0.19768651,0.6274414,0.70947266,-29,4,5,6,7,14,14,-26
26.5552099943161,false,-0.22949219,0.69921875,0.7133789,0.25762203,0.19787031,0.69921875,0.7133789,-6,-3,-1,7,23,14,25,-8
26.58523392677307,false,-0.20166016,0.6777344,0.78125,0.25951466,0.19750457,0.6777344,0.78125,-32,-42,11,0,-7,-1,-8,15
26.587283968925476,false,-0.20996094,0.6220703,0.83935547,0.26196525,0.19690117,0.6220703,0.83935547,2,5,0,-5,-4,-1,-2,-6
26.615140914916992,false,-0.2055664,0.63916016,0.828125,0.2651307,0.19604048,0.63916016,0.828125,-47,-48,1,-11,1,-17,-21,-37
26.645201921463013,false,-0.19140625,0.6191406,0.7709961,0.26958612,0.19378218,0.6191406,0.7709961,72,35,-10,0,-3,0,-1,5
26.647241950035095,false,-0.18457031,0.6230469,0.6923828,0.27300596,0.1911591,0.6230469,0.6923828,-58,11,-22,-14,-3,-1,-9,-32
26.675063967704773,false,-0.18554688,0.5966797,0.7109375,0.2772226,0.18908754,0.5966797,0.7109375,-63,2,-14,5,5,-10,-14,13
26.705163955688477,false,-0.1586914,0.5761719,0.77783203,0.28214929,0.18706198,0.5761719,0.77783203,-5,-42,-11,-11,-10,0,-4,34
26.70725393295288,false,-0.15966797,0.6035156,0.7807617,0.28686154,0.18481207,0.6035156,0.7807617,14,-19,1,0,-10,12,11,40
26.735285997390747,false,-0.1850586,0.47509766,0.8173828,0.2919878,0.1823703,0.47509766,0.8173828,60,46,2,2,4,8,2,-16
26.765288949012756,false,-0.234375,0.44091797,0.7836914,0.2950905,0.17998384,0.44091797,0.7836914,17,-17,-5,-14,-2,-15,-12,16
26.766560912132263,false,-0.20117188,0.5541992,0.78027344,0.29741046,0.17845848,0.5541992,0.78027344,26,22,9,13,17,2,-13,-55
26.79461693763733,false,-0.1772461,0.5673828,0.79296875,0.30150396,0.17760658,0.5673828,0.79296875,35,8,15,11,-3,17,25,5
26.79714298248291,false,-0.15722656,0.47705078,0.8227539,0.30548248,0.17633145,0.47705078,0.8227539,9,4,-15,-17,1,-11,22,17
26.82588291168213,false,-0.19140625,0.39013672,0.8432617,0.30785057,0.17522581,0.39013672,0.8432617,-8,26,1,-4,-8,29,40,-34
26.85476791858673,false,-0.20996094,0.49316406,0.81591797,0.3082269,0.17425501,0.49316406,0.81591797,3,8,-8,1,10,-9,-21,32
26.85742199420929,false,-0.1640625,0.57177734,0.7988281,0.30919012,0.17308788,0.57177734,0.7988281,-35,-39,17,8,0,3,-2,-9
26.88585090637207,false,-0.17480469,0.54003906,0.82128906,0.31138745,0.1722335,0.54003906,0.82128906,-15,11,-5,11,-3,-20,-32,-20
26.91485297679901,false,-0.1796875,0.45507812,0.8652344,0.31328437,0.17040522,0.45507812,0.8652344,-1,-16,6,12,6,-1,10,-1
26.917276978492737,false,-0.20263672,0.32861328,0.8696289,0.31340554,0.16790237,0.32861328,0.8696289,23,15,27,2,-8,-7,-5,18
26.94583296775818,false,-0.21240234,0.37353516,0.8540039,0.3123057,0.16662,0.37353516,0.8540039,-20,-5,-16,0,19,6,-5,-3
26.974869966506958,false,-0.18359375,0.5361328,0.83691406,0.3113989,0.1661974,0.5361328,0.83691406,71,57,-11,6,5,7,9,-10
26.977248907089233,false,-0.16113281,0.4892578,0.87597656,0.3120731,0.16510029,0.4892578,0.87597656,-16,-21,-10,-5,-4,5,-7,-3
27.005833983421326,false,-0.18310547,0.390625,0.8847656,0.3123676,0.1630195,0.390625,0.8847656,47,12,-6,-20,-4,8,14,17
27.034788966178894,false,-0.19677734,0.31591797,0.8852539,0.31181544,0.16094291,0.31591797,0.8852539,-13,-14,-8,7,-6,-9,-6,-11
27.037110924720764,false,-0.20654297,0.3696289,0.8544922,0.31060717,0.15991172,0.3696289,0.8544922,5,-32,-1,-10,-18,-8,9,11
27.065799951553345,false,-0.19238281,0.4375,0.86621094,0.3096973,0.15924324,0.4375,0.86621094,16,106,26,16,2,13,-12,-6
27.09493589401245,false,-0.19042969,0.42089844,0.8925781,0.30956805,0.15826301,0.42089844,0.8925781,11,38,-2,-14,4,-20,-6,5
27.097251892089844,false,-0.21044922,0.3125,0.953125,0.30937728,0.15642808,0.3125,0.953125,-34,-43,-6,-9,-15,-16,-3,-2
27.12584090232849,false,-0.2084961,0.265625,0.9404297,0.308461,0.15429154,0.265625,0.9404297,0,-21,36,14,-5,-7,1,6
27.15483593940735,false,-0.20751953,0.32617188,0.890625,0.30712235,0.15362221,0.32617188,0.890625,-64,-59,-16,-8,66,-14,-15,26
27.157318949699402,false,-0.21191406,0.3857422,0.85839844,0.30644885,0.15398735,0.3857422,0.85839844,82,6,11,8,-27,26,22,44
27.1858549118042,false,-0.20458984,0.33154297,0.9326172,0.3066263,0.15319109,0.33154297,0.9326172,-12,23,-4,-4,9,21,0,-51
27.214818954467773,false,-0.19482422,0.26416016,0.98779297,0.30644873,0.15124077,0.26416016,0.98779297,9,-8,-13,-62,4,-37,-37,-17
27.217285990715027,false,-0.2084961,0.23095703,0.9584961,0.30559146,0.14898118,0.23095703,0.9584961,-25,-15,-24,7,10,11,8,-13
27.246017932891846,false,-0.2133789,0.20703125,0.91015625,0.3043165,0.1472755,0.20703125,0.91015625,-42,-9,13,24,-20,13,6,13
27.274847984313965,false,-0.25683594,0.23632812,0.9140625,0.30345905,0.14690787,0.23632812,0.9140625,-53,-31,9,3,-23,-26,-18,-16
27.277217984199524,false,-0.22509766,0.22460938,0.9379883,0.30267233,0.14617871,0.22460938,0.9379883,-18,33,7,12,-16,-45,7,-14
27.30640399456024,false,-0.23925781,0.22802734,1.0161133,0.3019884,0.14550127,0.22802734,1.0161133,55,-12,-18,-9,7,28,7,5
27.334815979003906,false,-0.21582031,0.17382812,0.9682617,0.301205,0.14379716,0.17382812,0.9682617,-27,-26,1,-4,-14,-13,-10,4
27.33712899684906,false,-0.20458984,0.14794922,0.8823242,0.30022362,0.14257418,0.14794922,0.8823242,-8,-17,2,7,-46,-65,-30,-4
27.3659029006958,false,-0.24511719,0.17822266,0.92041016,0.2992592,0.14288512,0.17822266,0.92041016,-8,24,-12,-4,5,-14,8,-2
27.395221948623657,false,-0.24267578,0.2055664,0.98095703,0.29834414,0.14264122,0.2055664,0.98095703,29,30,11,13,-26,-13,14,29
27.397050976753235,false,-0.20214844,0.13085938,1.0600586,0.29759607,0.14007033,0.13085938,1.0600586,-12,-46,-2,-1,15,29,-3,9
27.425871968269348,false,-0.19677734,0.037109375,0.93310547,0.29583648,0.13787799,0.037109375,0.93310547,11,16,3,-2,15,-4,-5,-19
27.454754948616028,false,-0.22216797,0.08300781,0.8544922,0.29352,0.13855071,0.08300781,0.8544922,8,13,-7,-3,29,56,10,8
27.457015991210938,false,-0.2602539,0.20117188,0.9482422,0.29155615,0.14043766,0.20117188,0.9482422,19,-2,-4,-4,-9,8,2,-3
27.486085891723633,false,-0.2446289,0.2265625,1.0390625,0.29033354,0.14086396,0.2265625,1.0390625,-11,22,-13,-8,-3,28,9,-14
27.514705896377563,false,-0.18359375,0.059570312,0.9614258,0.2893554,0.13854392,0.059570312,0.9614258,-47,-31,21,58,9,-8,-21,-23
27.517281889915466,false,-0.19824219,-0.016113281,0.9291992,0.2872837,0.13854556,-0.016113281,0.9291992,-3,1,11,-2,28,21,17,13
27.545837998390198,false,-0.25439453,0.20703125,0.90527344,0.28454426,0.14263834,0.20703125,0.90527344,-53,-23,24,-25,-23,-6,-1,-3
27.57529890537262,false,-0.27197266,0.33984375,0.9790039,0.28417423,0.14623743,0.33984375,0.9790039,-5,18,-47,-20,35,24,9,5
27.57743799686432,false,-0.28027344,0.22607422,1.0170898,0.2852718,0.14666413,0.22607422,1.0170898,34,22,-5,-2,-28,-15,-2,-11
27.605884909629822,false,-0.23095703,0.06298828,1.0004883,0.28587878,0.14611311,0.06298828,1.0004883,18,-3,0,-9,16,-9,1,11
27.63473093509674,false,-0.25390625,0.013183594,0.94921875,0.28569505,0.148371,0.013183594,0.94921875,-1,3,27,18,-11,15,5,-6
27.637102961540222,false,-0.2319336,0.12597656,0.9038086,0.28429562,0.15246253,0.12597656,0.9038086,-61,-49,-6,-10,-24,-19,-11,11
27.66593289375305,false,-0.3071289,0.25585938,0.93310547,0.28295547,0.15679738,0.25585938,0.93310547,25,9,0,-8,-10,2,-3,-8
27.694894909858704,false,-0.33203125,0.41992188,0.9916992,0.28184986,0.15935686,0.41992188,0.9916992,-25,-22,14,-3,-9,-18,-18,-49
27.697351932525635,false,-0.27978516,0.21875,1.0117188,0.28221878,0.15874808,0.21875,1.0117188,-5,14,-19,-7,-9,2,3,10
27.726067900657654,false,-0.2446289,-0.016601562,1.012207,0.2818596,0.15942341,-0.016601562,1.012207,28,24,-1,2,9,-6,4,23
27.755337953567505,false,-0.22802734,0.080078125,0.96240234,0.2786819,0.16576874,0.080078125,0.96240234,-4,-8,-26,13,9,0,10,15
27.75794494152069,false,-0.32226562,0.32958984,0.95166016,0.2745245,0.17382076,0.32958984,0.95166016,27,9,21,-13,6,17,9,26
27.785858988761902,false,-0.30664062,0.5473633,0.94677734,0.27087405,0.17926027,0.5473633,0.94677734,22,-13,-49,-21,3,7,2,8
27.81484091281891,false,-0.22363281,0.4501953,0.86816406,0.26818457,0.18108867,0.4501953,0.86816406,59,6,-3,16,3,-2,-4,-1
27.81738293170929,false,-0.21484375,0.46679688,0.9379883,0.2661703,0.1832858,0.46679688,0.9379883,9,-3,-26,-57,-4,-12,-2,3
27.845886945724487,false,-0.24560547,0.43017578,0.8691406,0.26452816,0.18536504,0.43017578,0.8691406,-57,-5,15,22,7,-20,-15,-21
27.87475895881653,false,-0.20654297,0.50341797,0.8520508,0.261412,0.18609506,0.50341797,0.8520508,62,11,49,74,42,14,11,22
27.877227902412415,false,-0.22167969,0.41015625,0.7260742,0.25835142,0.18730934,0.41015625,0.7260742,-53,-15,-33,-31,45,1,3,20
27.905882954597473,false,-0.1694336,0.54296875,0.73046875,0.2539643,0.19000022,0.54296875,0.73046875,-25,-14,-12,-38,-100,-4,-7,-29
27.93514096736908,false,-0.25195312,0.6699219,0.85253906,0.25108346,0.19377491,0.6699219,0.85253906,-6,-9,34,9,36,-5,-22,-40
27.937691926956177,false,-0.2758789,0.6274414,0.8979492,0.24871017,0.19548924,0.6274414,0.8979492,-86,-27,-23,15,21,-3,-3,-4
27.96592092514038,false,-0.19677734,0.4506836,0.63623047,0.24425504,0.19347538,0.4506836,0.63623047,25,42,-10,-17,10,5,8,5
27.99534296989441,false,-0.05078125,0.6855469,0.5649414,0.23827869,0.19341834,0.6855469,0.5649414,34,23,-3,-5,-36,10,4,15
27.99795699119568,false,-0.19189453,0.80322266,0.58740234,0.23699883,0.19580022,0.80322266,0.58740234,-45,-48,7,13,1,-3,-2,13
28.02588391304016,false,-0.26464844,0.7192383,0.7421875,0.23741934,0.19854116,0.7192383,0.7421875,-14,-7,-25,-15,-8,-13,-11,-27
28.055348992347717,false,-0.2680664,0.56103516,0.7915039,0.23674896,0.2000068,0.56103516,0.7915039,34,-118,23,4,-37,-3,2,26
28.05777895450592,false,-0.21435547,0.57910156,0.6689453,0.2337577,0.20086074,0.57910156,0.6689453,-4,32,13,-1,-37,0,7,2
28.085908889770508,false,-0.1352539,0.9448242,0.47509766,0.23162268,0.2028148,0.9448242,0.47509766,-48,-42,-16,4,-11,2,-2,-1
28.11513590812683,false,-0.2241211,0.81689453,0.5546875,0.23529252,0.20550711,0.81689453,0.5546875,29,56,-2,-31,23,3,10,19
28.117755889892578,false,-0.26611328,0.4736328,0.80908203,0.23942901,0.20677683,0.4736328,0.80908203,9,-18,10,4,-19,-2,40,22
28.14611792564392,false,-0.24658203,0.51904297,0.87060547,0.23864949,0.20819268,0.51904297,0.87060547,-10,-12,-19,18,-22,-14,-38,-23
28.175383925437927,false,-0.24804688,0.7319336,0.72558594,0.23797128,0.2090412,0.7319336,0.72558594,-6,27,0,5,43,4,-3,-16
28.177738904953003,false,-0.21191406,0.8496094,0.6015625,0.23869655,0.20824152,0.8496094,0.6015625,42,40,0,-2,7,-1,2,-10
28.206148982048035,false,-0.19726562,0.734375,0.6557617,0.24230798,0.20690782,0.734375,0.6557617,-24,26,13,-33,-4,1,-24,-39
28.23539888858795,false,-0.2265625,0.41845703,0.8461914,0.24730279,0.20494638,0.41845703,0.8461914,24,33,12,15,40,-15,-10,20
28.237737894058228,false,-0.26464844,0.43603516,0.85839844,0.24773797,0.20458677,0.43603516,0.85839844,55,-39,8,26,-9,-9,-42,13
28.265804886817932,false,-0.24560547,0.5917969,0.7558594,0.24804285,0.20458652,0.5917969,0.7558594,7,40,-18,2,-13,0,23,3
28.295183897018433,false,-0.23925781,0.82714844,0.6669922,0.24944331,0.20494999,0.82714844,0.6669922,-20,-45,56,19,-11,26,12,-48
28.29785692691803,false,-0.19482422,0.69873047,0.6875,0.25444573,0.20372748,0.69873047,0.6875,98,40,-32,-76,4,0,42,25
28.32661998271942,false,-0.2109375,0.47753906,0.78125,0.2601886,0.20135169,0.47753906,0.78125,0,56,-10,-5,33,1,-2,-26
28.385446906089783,false,-0.23535156,0.4560547,0.8154297,0.2629347,0.19884896,0.4560547,0.8154297,-57,-41,-8,23,-32,-2,-14,-13
28.387404918670654,false,-0.2475586,0.46728516,0.80615234,0.2657396,0.19756524,0.46728516,0.80615234,-39,7,-11,26,-33,17,12,-16
28.415836930274963,false,-0.20410156,0.6015625,0.78564453,0.27153844,0.19420889,0.6015625,0.78564453,-58,26,-9,-8,18,-24,-17,-25
28.418577909469604,false,-0.203125,0.5644531,0.79541016,0.27599454,0.19073041,0.5644531,0.79541016,11,21,21,25,-10,-10,-29,18
28.446623921394348,false,-0.23779297,0.4243164,0.8696289,0.2804538,0.18670473,0.4243164,0.8696289,0,-25,4,5,23,6,8,6
28.475937962532043,false,-0.24072266,0.3701172,0.8730469,0.28337914,0.18255158,0.3701172,0.8730469,28,0,4,9,6,-4,-9,15
28.478514909744263,false,-0.203125,0.39160156,0.85839844,0.28595123,0.178895,0.39160156,0.85839844,-57,-21,-9,1,13,23,13,-19
28.506345987319946,false,-0.20996094,0.4399414,0.8535156,0.2889936,0.17577647,0.4399414,0.8535156,5,-21,-16,-25,-4,-8,14,0
28.535921931266785,false,-0.21533203,0.37304688,0.87597656,0.2918622,0.17229757,0.37304688,0.87597656,-7,5,-31,-22,-10,-7,-13,8
28.538343906402588,false,-0.25097656,0.29003906,0.92578125,0.29394346,0.1687001,0.29003906,0.92578125,2,7,-2,-8,3,13,-11,-23
28.566324949264526,false,-0.25048828,0.24072266,0.92285156,0.29430565,0.16521887,0.24072266,0.92285156,-1,27,-11,0,30,34,61,14
28.596166968345642,false,-0.2368164,0.30322266,0.89501953,0.29405633,0.16265258,0.30322266,0.89501953,-89,-50,-18,-9,-8,-53,-34,25
28.598472952842712,false,-0.24072266,0.40625,0.88378906,0.2943632,0.16082251,0.40625,0.88378906,55,51,11,12,11,9,17,-21
28.626990914344788,false,-0.22802734,0.2783203,0.9165039,0.29552248,0.15795377,0.2783203,0.9165039,27,-19,-15,-8,-20,3,7,44
28.65590798854828,false,-0.25439453,0.15771484,0.94628906,0.29540858,0.15466225,0.15771484,0.94628906,62,-11,4,12,9,-26,0,42
28.658429980278015,false,-0.24658203,0.140625,0.92626953,0.29405692,0.15148388,0.140625,0.92626953,45,47,12,-10,-12,31,-9,-28
28.68660795688629,false,-0.25048828,0.23876953,0.86279297,0.2924832,0.1494765,0.23876953,0.86279297,3,48,-17,-11,22,-3,17,-24
28.716055989265442,false,-0.23925781,0.22851562,0.93847656,0.292412,0.14751823,0.22851562,0.93847656,-42,-33,12,-9,-20,-16,-15,-7
28.71863090991974,false,-0.2607422,0.13378906,1.0258789,0.2920578,0.14471664,0.13378906,1.0258789,-5,-22,-10,-42,12,9,1,-4
28.746477961540222,false,-0.22998047,0.09814453,1.0371094,0.29021865,0.14141674,0.09814453,1.0371094,-92,-79,-1,36,6,21,-14,6
28.775872945785522,false,-0.23144531,0.10839844,0.9897461,0.28863218,0.13915868,0.10839844,0.9897461,15,33,0,1,-6,-25,6,-10
28.778626918792725,false,-0.24072266,0.13867188,0.8911133,0.28697553,0.13817793,0.13867188,0.8911133,41,6,2,24,18,69,16,-8
28.806436896324158,false,-0.24511719,0.19433594,0.96484375,0.28544593,0.13878642,0.19433594,0.96484375,22,-7,-12,-7,7,2,-2,16
28.83584189414978,false,-0.24267578,0.2163086,1.0527344,0.28454483,0.13830514,0.2163086,1.0527344,6,17,-2,1,-36,-42,-3,0
28.838361978530884,false,-0.19238281,0.040039062,0.9794922,0.28381076,0.13622917,0.040039062,0.9794922,-53,-14,3,7,13,13,6,24
28.866628885269165,false,-0.21240234,0.023925781,0.8955078,0.28185174,0.13647044,0.023925781,0.8955078,36,19,-26,-1,6,23,16,18
28.895867943763733,false,-0.24121094,0.20117188,0.8881836,0.28094426,0.13879366,0.20117188,0.8881836,6,-14,-1,1,2,-6,-8,-12
28.898786902427673,false,-0.24902344,0.2211914,0.9345703,0.2806956,0.14013419,0.2211914,0.9345703,-9,7,0,3,2,-14,-12,-16
28.926630973815918,false,-0.23779297,0.12011719,0.9814453,0.2808206,0.14050186,0.12011719,0.9814453,8,-14,3,-2,31,13,-18,-25
28.956031918525696,false,-0.2109375,0.06640625,1.0141602,0.28045177,0.14031743,0.06640625,1.0141602,5,-14,6,4,-17,-39,-25,-8
28.95853090286255,false,-0.21044922,0.104003906,0.8623047,0.27934858,0.14110857,0.104003906,0.8623047,-7,-10,-4,2,-6,-55,-18,7
28.986491918563843,false,-0.21386719,0.23144531,0.82666016,0.27838102,0.14385968,0.23144531,0.82666016,-8,18,-1,18,0,18,11,1
29.015893936157227,false,-0.2944336,0.2915039,1.0488281,0.27905357,0.14672895,0.2915039,1.0488281,-8,6,-12,-8,-2,-5,-1,2
29.01857888698578,false,-0.25585938,0.1538086,1.0361328,0.27953574,0.1461154,0.1538086,1.0361328,-6,9,2,-10,0,-2,1,-6
29.046519994735718,false,-0.19921875,0.079589844,1.0146484,0.27953333,0.14593104,0.079589844,1.0146484,8,50,9,-7,-13,39,21,4
29.076088905334473,false,-0.19677734,0.12646484,0.95166016,0.27947572,0.14843524,0.12646484,0.95166016,-4,-28,-5,5,0,-1,0,3
29.07863998413086,false,-0.2709961,0.34423828,0.98779297,0.2792983,0.15258867,0.34423828,0.98779297,-4,5,22,-10,-4,-7,-4,-2
29.10646688938141,false,-0.28564453,0.42041016,1.0087891,0.27984485,0.15338062,0.42041016,1.0087891,5,-8,-4,2,-3,-1,-2,-8
29.13591992855072,false,-0.23828125,0.1328125,0.9873047,0.28039992,0.1512475,0.1328125,0.9873047,0,3,16,-7,-6,-19,-2,1
29.1382999420166,false,-0.20263672,-0.06591797,0.89990234,0.2796511,0.15129967,-0.06591797,0.89990234,8,20,4,-12,-12,41,-4,0
29.16656494140625,false,-0.22216797,0.21875,0.8510742,0.27538317,0.1577716,0.21875,0.8510742,-9,-5,4,6,-1,-28,-5,-3
29.195859909057617,false,-0.31152344,0.4975586,0.84765625,0.27361563,0.16558535,0.4975586,0.84765625,-16,-22,-14,-6,4,-17,-2,-2
29.198556900024414,false,-0.29345703,0.5288086,0.88183594,0.273974,0.16991393,0.5288086,0.88183594,-11,-22,8,-17,-18,-5,-5,-14
29.226568937301636,false,-0.21875,0.37890625,0.8955078,0.27336186,0.17015693,0.37890625,0.8955078,-1,13,18,29,-5,6,1,7
29.25593090057373,false,-0.1850586,0.3959961,0.86865234,0.27287933,0.16991636,0.3959961,0.86865234,10,-1,-38,-19,1,0,0,-2
29.258673906326294,false,-0.18652344,0.46142578,0.8359375,0.27355856,0.17163022,0.46142578,0.8359375,-14,-1,5,9,4,-6,-1,-2
29.2865549325943,false,-0.25195312,0.41601562,0.91796875,0.27563715,0.17370756,0.41601562,0.91796875,-4,0,-2,10,4,1,1,-5
29.315987944602966,false,-0.28710938,0.32714844,0.99658203,0.27635992,0.17492215,0.32714844,0.99658203,4,2,-13,-35,-1,-1,1,2
29.318558931350708,false,-0.22802734,0.234375,0.8051758,0.27538583,0.17419131,0.234375,0.8051758,24,13,16,15,4,-2,-1,4
29.346640944480896,false,-0.20507812,0.43798828,0.80029297,0.27355656,0.17577933,0.43798828,0.80029297,-12,-2,-10,2,-4,-4,-4,0
29.376043915748596,false,-0.30126953,0.5600586,0.8598633,0.27422377,0.17876728,0.5600586,0.8598633,-14,-4,-34,-33,-10,-2,-3,1
29.37868297100067,false,-0.29882812,0.42041016,0.94628906,0.27611306,0.17876552,0.42041016,0.94628906,18,9,21,12,8,-3,1,2
29.406324982643127,false,-0.24560547,0.24365234,0.9189453,0.27685434,0.17712331,0.24365234,0.9189453,0,0,-3,17,3,6,4,5
29.435849905014038,false,-0.18603516,0.2758789,0.87060547,0.2767321,0.17529213,0.2758789,0.87060547,-16,-7,2,-3,-12,-3,-10,-13
29.46592390537262,false,-0.25390625,0.40625,0.8745117,0.27599224,0.17534846,0.40625,0.8745117,-13,1,6,5,-2,4,0,6
29.46872591972351,false,-0.2631836,0.49658203,0.9458008,0.27679452,0.17468268,0.49658203,0.9458008,29,1,-2,-1,-2,-4,1,2
29.49588191509247,false,-0.21582031,0.42529297,0.92626953,0.277584,0.17150638,0.42529297,0.92626953,-7,13,8,-1,-9,-17,-1,7
29.498520970344543,false,-0.23291016,0.2939453,0.88378906,0.2785066,0.16754343,0.2939453,0.88378906,6,-14,-20,-8,29,51,5,-3
29.52666997909546,false,-0.19384766,0.29248047,0.890625,0.2790434,0.16314153,0.29248047,0.890625,16,37,22,-3,15,15,13,41
29.555863976478577,false,-0.2758789,0.3544922,0.9946289,0.27875048,0.16028,0.3544922,0.9946289,2,-3,19,-5,-17,-16,-4,24
29.558496952056885,false,-0.2841797,0.42285156,0.98828125,0.28058183,0.15735044,0.42285156,0.98828125,-57,-23,-5,33,36,2,-28,-34
29.586805939674377,false,-0.20996094,0.40625,1.0175781,0.28393263,0.15191494,0.40625,1.0175781,11,-5,-2,6,2,-11,18,0
29.615866899490356,false,-0.1796875,0.110839844,0.90722656,0.2881371,0.14434321,0.110839844,0.90722656,52,14,-10,-4,-26,27,14,-17
29.618550896644592,false,-0.1586914,-0.0034179688,0.89208984,0.28990257,0.13634576,-0.0034179688,0.89208984,13,-3,7,12,3,-21,10,44
29.646657943725586,false,-0.28076172,0.1953125,0.9453125,0.2891146,0.1333577,0.1953125,0.9453125,-13,15,-7,-12,7,-9,-10,-33
29.675935983657837,false,-0.29589844,0.17675781,0.9926758,0.29144204,0.13116418,0.17675781,0.9926758,-22,-17,-7,-12,-6,0,-6,-4
29.678607940673828,false,-0.17822266,0.046875,0.91064453,0.29338792,0.12658343,0.046875,0.91064453,79,19,16,9,19,-6,15,9
29.70644497871399,false,-0.23144531,0.053222656,0.9003906,0.2927869,0.12567192,0.053222656,0.9003906,-38,-66,-33,-21,-27,-22,-19,-33
29.73588192462921,false,-0.26416016,0.15820312,0.91748047,0.29296836,0.12768538,0.15820312,0.91748047,-51,8,4,-14,-8,10,-2,-5
29.73836100101471,false,-0.18896484,0.19580078,1.0048828,0.29301673,0.12877844,0.19580078,1.0048828,32,2,37,21,5,-12,-17,-19
29.76649296283722,false,-0.15673828,0.14257812,0.94384766,0.2925327,0.12847514,0.14257812,0.94384766,-90,-51,-15,-9,-13,-4,0,7
29.795931935310364,false,-0.2133789,0.109375,0.8676758,0.29185748,0.12993823,0.109375,0.8676758,36,20,-10,-7,-6,-1,-4,-11
29.798680901527405,false,-0.23291016,0.18359375,0.84472656,0.29095432,0.13366686,0.18359375,0.84472656,59,62,-52,-26,-12,-1,-1,-13
29.826409935951233,false,-0.2241211,0.22558594,0.9316406,0.29046375,0.13769409,0.22558594,0.9316406,24,20,21,-25,6,4,10,6
29.85592293739319,false,-0.22705078,0.19726562,1.0097656,0.2901594,0.14117348,0.19726562,1.0097656,-26,4,13,28,-1,-8,-2,7
29.858869910240173,false,-0.2163086,0.20166016,0.90283203,0.28985935,0.14422776,0.20166016,0.90283203,1,-16,-2,-1,-8,9,4,3
29.886709928512573,false,-0.20947266,0.3095703,0.8408203,0.2899733,0.14837404,0.3095703,0.8408203,-69,-102,13,0,-1,-10,-8,-7
29.91604495048523,false,-0.23242188,0.3305664,0.8671875,0.29137254,0.15227786,0.3305664,0.8671875,10,66,-23,-7,7,-5,-4,-5
29.918670892715454,false,-0.21289062,0.26904297,0.96972656,0.29230204,0.15436037,0.26904297,0.96972656,-3,-15,-17,16,-2,4,3,10
29.94662296772003,false,-0.23486328,0.21289062,0.99365234,0.29283398,0.15593806,0.21289062,0.99365234,-27,-21,-6,2,-6,-8,-3,-11
30.005592942237854,false,-0.20605469,0.2109375,0.95654297,0.2929032,0.15716311,0.2109375,0.95654297,14,16,27,-1,-5,4,2,1
30.007593989372253,false,-0.22167969,0.30810547,0.89404297,0.2928335,0.15886737,0.30810547,0.89404297,1,-6,34,10,5,3,2,12
30.035862922668457,false,-0.25683594,0.35839844,0.9814453,0.29376397,0.1616831,0.35839844,0.9814453,-24,-13,15,-8,4,-8,-11,-39
30.03880798816681,false,-0.24658203,0.26513672,0.95458984,0.29449737,0.16113432,0.26513672,0.95458984,22,-2,-34,2,6,1,1,11
30.066468954086304,false,-0.23291016,0.23291016,0.8881836,0.294066,0.16113207,0.23291016,0.8881836,27,5,-19,-35,2,5,5,2
30.096149921417236,false,-0.20898438,0.3305664,0.8647461,0.29326504,0.16265376,0.3305664,0.8647461,-13,19,23,20,-6,1,-5,-4
30.098663926124573,false,-0.2524414,0.44384766,0.95947266,0.29314214,0.16509463,0.44384766,0.95947266,8,5,8,30,17,1,-4,-8
30.126624941825867,false,-0.24609375,0.3491211,0.95410156,0.2935039,0.16509213,0.3491211,0.95410156,-1,11,50,9,-9,2,0,3
30.15594494342804,false,-0.1928711,0.31152344,0.88964844,0.29204038,0.16417734,0.31152344,0.88964844,1,-9,-15,9,12,9,5,7
30.158660888671875,false,-0.22753906,0.3696289,0.91845703,0.290887,0.16534051,0.3696289,0.91845703,-3,-3,3,3,6,1,0,0
30.18671488761902,false,-0.2397461,0.41308594,0.90478516,0.289966,0.16619183,0.41308594,0.90478516,-5,-9,-26,-15,-5,7,4,-5
30.215964913368225,false,-0.22216797,0.41357422,0.8779297,0.28875816,0.16595507,0.41357422,0.8779297,7,0,20,3,-2,0,0,2
30.2186359167099,false,-0.20214844,0.38916016,0.85546875,0.28814626,0.16595417,0.38916016,0.85546875,14,10,-12,-25,-36,-14,-3,-2
30.24662697315216,false,-0.21289062,0.36816406,0.87060547,0.2874107,0.16631858,0.36816406,0.87060547,9,0,20,11,40,9,-10,-2
30.275889992713928,false,-0.21923828,0.40429688,0.8798828,0.28662544,0.16650642,0.40429688,0.8798828,8,2,-15,-8,8,-13,1,9
30.27861988544464,false,-0.24658203,0.43945312,0.87841797,0.28606614,0.1666227,0.43945312,0.87841797,10,2,11,5,-16,-19,4,5
30.30650293827057,false,-0.21289062,0.3798828,0.9140625,0.28637615,0.16546583,0.3798828,0.9140625,-2,-2,11,6,30,9,3,-6
30.335959911346436,false,-0.21582031,0.3022461,0.8720703,0.2856488,0.16339354,0.3022461,0.8720703,20,-6,-39,-76,-15,2,-14,-23
30.338854908943176,false,-0.2055664,0.35839844,0.88427734,0.28393406,0.16290198,0.35839844,0.88427734,-22,-3,2,29,24,0,1,-2
30.366628885269165,false,-0.2836914,0.3935547,0.94433594,0.2837414,0.1634458,0.3935547,0.94433594,-9,1,-6,9,14,33,2,15
30.395976901054382,false,-0.26464844,0.42871094,0.9746094,0.28471783,0.16253024,0.42871094,0.9746094,11,2,-7,12,-19,11,9,6
30.398473978042603,false,-0.22070312,0.28222656,0.93408203,0.28576565,0.15924019,0.28222656,0.93408203,-4,0,-2,8,-24,21,-6,-22
30.42648494243622,false,-0.15039062,0.12988281,0.9008789,0.2850808,0.1543501,0.12988281,0.9008789,13,12,-2,9,59,43,23,24
30.456044912338257,false,-0.24169922,0.34521484,0.9111328,0.28209975,0.15429428,0.34521484,0.9111328,20,5,2,3,-6,22,17,18
30.45850098133087,false,-0.31591797,0.41064453,1.0610352,0.28270227,0.15416795,0.41064453,1.0610352,-11,4,6,7,-24,-35,-7,21
30.486589908599854,false,-0.28027344,0.4165039,1.1201172,0.28350267,0.151059,0.4165039,1.1201172,-1,6,-3,-6,-22,-4,-18,-6
30.51602590084076,false,-0.10449219,-0.067871094,0.796875,0.2838714,0.14214931,-0.067871094,0.796875,14,-9,-26,-19,-10,-2,-8,-16
30.517265915870667,false,-0.071777344,-0.072753906,0.8222656,0.2809994,0.14037763,-0.072753906,0.8222656,-8,-13,-14,-7,-17,24,8,-15
30.54677188396454,false,-0.3701172,0.25,0.99658203,0.2781994,0.1468512,0.25,0.99658203,-38,-14,0,4,-1,-43,-11,-24
30.57542395591736,false,-0.32617188,0.5522461,1.059082,0.2769137,0.15069428,0.5522461,1.059082,29,25,26,14,12,26,13,38
30.577326893806458,false,-0.17138672,0.44140625,0.97265625,0.27818778,0.14934742,0.44140625,0.97265625,-9,3,-3,-4,-35,-12,-2,0
30.6053409576416,false,-0.12939453,0.087890625,0.90527344,0.2802738,0.14605732,0.087890625,0.90527344,-7,4,4,3,17,-5,-9,-16
30.635392904281616,false,-0.15917969,-0.08691406,0.85253906,0.2795349,0.14477223,-0.08691406,0.85253906,-31,-6,-19,-13,13,33,-10,-54
30.637318968772888,false,-0.29589844,0.15332031,0.93115234,0.2758058,0.15148263,0.15332031,0.93115234,-21,-15,11,-4,-5,-36,-21,-46
30.66527795791626,false,-0.29003906,0.48486328,0.93359375,0.272947,0.15875116,0.48486328,0.93359375,-37,-4,7,4,4,-6,2,-20
30.695212960243225,false,-0.20166016,0.5649414,0.9111328,0.27252597,0.16229486,0.5649414,0.9111328,30,-2,1,14,14,7,0,-7
30.69728195667267,false,-0.1743164,0.34960938,0.8745117,0.27317992,0.16246758,0.34960938,0.8745117,-4,6,-19,-25,-8,-2,-11,-29
30.725385904312134,false,-0.19970703,0.19482422,0.8618164,0.27288648,0.16223045,0.19482422,0.8618164,18,12,24,16,7,8,2,21
30.75522291660309,false,-0.27734375,0.2783203,0.92578125,0.27092564,0.16527745,0.2783203,0.92578125,-19,7,28,11,20,15,6,3
30.757279992103577,false,-0.24609375,0.40625,0.9326172,0.27000833,0.16869417,0.40625,0.9326172,-14,-4,-11,-8,6,2,0,10
30.785266995429993,false,-0.22363281,0.4321289,0.92041016,0.26964056,0.16997486,0.4321289,0.92041016,43,8,11,17,10,-6,5,8
30.815314888954163,false,-0.19628906,0.5048828,0.8544922,0.2693478,0.1694944,0.5048828,0.8544922,11,9,-26,-5,-4,-18,-4,20
30.81741988658905,false,-0.19824219,0.4399414,0.76904297,0.27013972,0.16912726,0.4399414,0.76904297,-57,-20,43,6,-14,-13,-15,-18
30.845261931419373,false,-0.23291016,0.32226562,0.80566406,0.27129334,0.16991691,0.32226562,0.80566406,-17,-7,2,-6,-1,2,8,19
30.875504970550537,false,-0.25634766,0.40429688,0.8364258,0.27123246,0.17156489,0.40429688,0.8364258,-14,7,9,-2,6,-2,-5,-17
30.877315998077393,false,-0.2109375,0.52441406,0.8339844,0.2718446,0.17333601,0.52441406,0.8339844,52,13,-16,-2,-4,-7,1,7
30.90523588657379,false,-0.21923828,0.45996094,0.8510742,0.27355936,0.173828,0.45996094,0.8510742,10,-17,-32,-6,-6,-3,0,8
30.935239911079407,false,-0.22705078,0.37109375,0.80615234,0.27423275,0.17370719,0.37109375,0.80615234,-9,6,23,-18,-4,2,0,8
